File: Input_data/[1] JJ1-53 1st SC total meas_10_CV.mpt
EC-Lab ASCII FILE
Nb header lines : 56

Cyclic Voltammetry

Run on channel : 1 (SN 31418)
User :
CE vs. WE compliance from -10 V to 10 V
Electrode connection : standard
Ewe ctrl range : min = -10.00 V, max = 10.00 V
Safety Limits :
	Do not start on E overload
Acquisition started on : 01/25/2023 15:21:28
Technique started on : 01/25/2023 17:47:22
Saved on :
	File : [1] JJ1-53 1st SC total meas_10_CV.mpr
	Directory : C:\Users\Potentiostat\Documents\EC-Lab\Data\Supercapacitor until 2021 02\(230125) SC JJ1-53 54 lower CB better viscosity\
	Host : 127.0.0.1
Device : SP-150 (SN 1275)
Address : USB
EC-Lab for windows v11.16 (software)
Internet server v11.16 (firmware)
Command interpretor v11.16 (firmware)
Electrode material : Au/Pd
Initial state :
Electrolyte : NaCl (0.2M)
Comments : Fe(CN)63-/Fe(CN)64- 5.10-3 M
Reference electrode : SCE Saturated Calomel Electrode (0.241 V)
Electrode surface area : 0.001 cm²
Characteristic mass : 0.001 g
Equivalent Weight : 0.000 g/eq.
Density : 0.000 g/cm3
Cycle Definition : Charge/Discharge alternance
Ei (V)              0.000
vs.                 Ref
dE/dt               20.000
dE/dt unit          mV/s
E1 (V)              0.800
vs.                 Ref
Step percent        50
N                   10
E range min (V)     -10.000
E range max (V)     10.000
I Range             Auto
I Range min         Unset
I Range max         Unset
I Range init        Unset
Bandwidth           7
E2 (V)              0.000
vs.                 Ref
nc cycles           5
Reverse Scan        0
Ef (V)              0.000
vs.                 Eoc

mode	ox/red	error	control changes	counter inc.	time/s	control/V	Ewe/V	<I>/mA	cycle number	(Q-Qo)/C	P/W
2	1	0	0	0	8754.95	0.00197956	0.00165998	-1.07326	1	0.0000000E+000	-1.78159e-06
2	1	0	1	0	8755.65	0.0159909	0.01553	-0.665514	1	-0.000582912	-1.03354e-05
2	1	0	1	0	8756.47	0.0323118	0.0319333	-0.386568	1	-0.00100294	-1.23444e-05
2	1	0	0	0	8757.24	0.0477089	0.0473268	-0.187797	1	-0.00121838	-8.88781e-06
2	1	0	0	0	8758.03	0.0635697	0.0632095	-0.0237377	1	-0.00129742	-1.50045e-06
2	1	0	0	0	8758.85	0.0800428	0.0796964	0.117399	1	-0.00125529	9.35631e-06
2	1	0	1	0	8759.62	0.0954399	0.0950665	0.227788	1	-0.00111907	2.1655e-05
2	1	0	0	0	8760.39	0.110837	0.110475	0.324115	1	-0.000903645	3.58065e-05
2	1	0	0	0	8761.16	0.126235	0.125829	0.408628	1	-0.000618699	5.14173e-05
2	1	0	1	0	8761.93	0.141631	0.141176	0.483099	1	-0.000272793	6.82018e-05
2	1	0	0	0	8762.7	0.157028	0.156654	0.550889	1	0.00012762	8.6299e-05
2	1	0	1	0	8763.47	0.172425	0.172012	0.611513	1	0.000577506	0.000105188
2	1	0	1	0	8764.24	0.187821	0.187429	0.666912	1	0.00107176	0.000124999
2	1	0	0	0	8765.01	0.203219	0.202831	0.718524	1	0.00160745	0.000145739
2	1	0	1	0	8765.78	0.218617	0.218232	0.766042	1	0.002181	0.000167175
2	1	0	0	0	8766.55	0.234014	0.233661	0.811206	1	0.00279	0.000189547
2	1	0	0	0	8767.32	0.249411	0.248994	0.853377	1	0.00343293	0.000212486
2	1	0	1	0	8768.09	0.264808	0.264416	0.89304	1	0.00410711	0.000236134
2	1	0	0	0	8768.86	0.280205	0.279805	0.932117	1	0.00481179	0.000260811
2	1	0	0	0	8769.63	0.295603	0.295213	0.968651	1	0.00554546	0.000285958
2	1	0	1	0	8770.4	0.310999	0.310603	1.00462	1	0.00630708	0.000312037
2	1	0	0	0	8771.2	0.327012	0.326515	1.04195	1	0.00712836	0.000340213
2	1	0	1	0	8771.97	0.342409	0.341896	1.07572	1	0.00794524	0.000367784
2	1	0	1	0	8772.74	0.357805	0.357319	1.10997	1	0.00878856	0.000396615
2	1	0	0	0	8773.51	0.373203	0.372668	1.14253	1	0.0096577	0.000425783
2	1	0	1	0	8774.28	0.3886	0.388142	1.17627	1	0.0105522	0.00045656
2	1	0	0	0	8775.05	0.403998	0.403494	1.20974	1	0.0114725	0.000488122
2	1	0	0	0	8775.82	0.419395	0.418879	1.24301	1	0.0124187	0.000520673
2	1	0	1	0	8776.59	0.434792	0.434298	1.27768	1	0.0133907	0.000554894
2	1	0	0	0	8777.36	0.450189	0.449659	1.31178	1	0.0143893	0.000589853
2	1	0	1	0	8778.13	0.465586	0.465065	1.34777	1	0.0154148	0.0006268
2	1	0	1	0	8778.9	0.480983	0.480514	1.38494	1	0.016469	0.000665481
2	1	0	0	0	8779.67	0.49638	0.4959	1.42265	1	0.0175516	0.000705492
2	1	0	1	0	8780.44	0.511777	0.511303	1.46272	1	0.018664	0.000747893
2	1	0	1	0	8781.21	0.527173	0.526693	1.50315	1	0.0198075	0.000791699
2	1	0	0	0	8781.98	0.542571	0.542028	1.54522	1	0.0209827	0.000837551
2	1	0	1	0	8782.75	0.557968	0.557517	1.58908	1	0.0221911	0.000885938
2	1	0	0	0	8783.52	0.573365	0.572846	1.63404	1	0.0234334	0.00093605
2	1	0	0	0	8784.29	0.588763	0.588267	1.68041	1	0.0247112	0.000988532
2	1	0	1	0	8785.06	0.60416	0.603678	1.72834	1	0.0260253	0.00104336
2	1	0	0	0	8785.83	0.619557	0.619034	1.77659	1	0.0273762	0.00109977
2	1	0	0	0	8786.6	0.634955	0.634477	1.82756	1	0.0287657	0.00115954
2	1	0	1	0	8787.37	0.650351	0.649853	1.87791	1	0.0301942	0.00122036
2	1	0	0	0	8788.14	0.665748	0.665269	1.9299	1	0.0316617	0.0012839
2	1	0	1	0	8788.91	0.681145	0.680709	1.98232	1	0.0331695	0.00134938
2	1	0	1	0	8789.68	0.696541	0.69606	2.03448	1	0.0347177	0.00141612
2	1	0	0	0	8790.45	0.711939	0.711465	2.08823	1	0.0363067	0.0014857
2	1	0	1	0	8791.22	0.727336	0.726834	2.14107	1	0.0379367	0.0015562
2	1	0	0	0	8791.99	0.742733	0.742233	2.19522	1	0.0396077	0.00162937
2	1	0	0	0	8792.76	0.75813	0.757667	2.25018	1	0.0413214	0.00170488
2	1	0	1	0	8793.53	0.773528	0.773058	2.3052	1	0.0430767	0.00178205
2	1	0	0	0	8794.3	0.788925	0.788466	2.36223	1	0.0448751	0.00186254
2	0	0	1	0	8794.93	0.798163	0.797661	2.32307	1	0.0463771	0.00185302
2	0	0	1	0	8795.7	0.782766	0.782205	1.78922	1	0.0479446	0.00139954
2	0	0	0	0	8796.47	0.767369	0.766838	1.38209	1	0.0491567	0.00105984
2	0	0	1	0	8797.24	0.751972	0.751482	1.04495	1	0.0500842	0.000785262
2	0	0	0	0	8798.01	0.736575	0.736094	0.756819	1	0.0507721	0.000557089
2	0	0	0	0	8798.78	0.721177	0.7207	0.508705	1	0.0512543	0.000366623
2	0	0	0	0	8799.59	0.704857	0.704434	0.278676	1	0.0515706	0.000196309
2	0	0	1	0	8800.36	0.68946	0.689037	0.088087	1	0.0517078	6.06952e-05
2	0	0	1	0	8801.19	0.672831	0.672447	-0.0922561	1	0.0517018	-6.20373e-05
2	0	0	1	0	8801.98	0.657126	0.656732	-0.244361	1	0.0515662	-0.00016048
2	0	0	0	0	8802.75	0.641728	0.641348	-0.376425	1	0.0513239	-0.000241419
2	0	0	1	0	8803.52	0.626331	0.625927	-0.496318	1	0.050985	-0.000310659
2	0	0	0	0	8804.29	0.610934	0.610543	-0.604149	1	0.0505583	-0.000368859
2	0	0	0	0	8805.06	0.595537	0.595095	-0.700519	1	0.0500534	-0.000416875
2	0	0	1	0	8805.83	0.58014	0.579732	-0.789214	1	0.0494774	-0.000457533
2	0	0	0	0	8806.6	0.564743	0.564301	-0.868717	1	0.0488366	-0.000490218
2	0	0	0	0	8807.37	0.549346	0.548961	-0.942165	1	0.0481369	-0.000517212
2	0	0	1	0	8808.14	0.533949	0.533542	-1.00948	1	0.047383	-0.000538599
2	0	0	0	0	8808.94	0.517936	0.517474	-1.07409	1	0.0465462	-0.000555815
2	0	0	1	0	8809.71	0.502539	0.502037	-1.13134	1	0.045695	-0.000567977
2	0	0	1	0	8810.48	0.487142	0.486659	-1.18334	1	0.0448015	-0.000575885
2	0	0	0	0	8811.25	0.471745	0.471265	-1.2324	1	0.0438695	-0.000580786
2	0	0	1	0	8812.02	0.456348	0.455821	-1.27787	1	0.0429009	-0.000582478
2	0	0	0	0	8812.79	0.440951	0.440472	-1.31915	1	0.0418991	-0.00058105
2	0	0	0	0	8813.56	0.425553	0.42505	-1.35737	1	0.0408664	-0.000576952
2	0	0	1	0	8814.33	0.410156	0.409643	-1.39198	1	0.0398059	-0.000570214
2	0	0	0	0	8815.1	0.394759	0.394263	-1.42227	1	0.0387207	-0.000560749
2	0	0	0	0	8815.87	0.379361	0.378873	-1.44922	1	0.037613	-0.000549069
2	0	0	1	0	8816.64	0.363965	0.363472	-1.4714	1	0.0364867	-0.000534812
2	0	0	0	0	8817.41	0.348568	0.348087	-1.49121	1	0.0353445	-0.000519072
2	0	0	1	0	8818.18	0.333171	0.332618	-1.50786	1	0.0341883	-0.000501543
2	0	0	1	0	8818.95	0.317774	0.317282	-1.5225	1	0.0330197	-0.000483062
2	0	0	0	0	8819.72	0.302377	0.301929	-1.53709	1	0.0318401	-0.000464093
2	0	0	1	0	8820.49	0.28698	0.286526	-1.54992	1	0.0306499	-0.000444091
2	0	0	0	0	8821.26	0.271583	0.27114	-1.56288	1	0.02945	-0.000423761
2	0	0	0	0	8822.03	0.256185	0.255693	-1.57518	1	0.0282398	-0.000402762
2	0	0	1	0	8822.8	0.240788	0.240327	-1.58658	1	0.0270211	-0.000381297
2	0	0	0	0	8823.57	0.225391	0.224913	-1.59896	1	0.0257932	-0.000359627
2	0	0	0	0	8824.34	0.209994	0.209508	-1.6097	1	0.0245562	-0.000337245
2	0	0	1	0	8825.11	0.194597	0.194139	-1.6215	1	0.0233104	-0.000314797
2	0	0	0	0	8825.88	0.1792	0.178725	-1.63364	1	0.0220555	-0.000291971
2	0	0	1	0	8826.65	0.163803	0.163319	-1.64537	1	0.0207915	-0.000268721
2	0	0	1	0	8827.42	0.148406	0.147866	-1.65781	1	0.0195181	-0.000245133
2	0	0	0	0	8828.19	0.133009	0.132551	-1.66905	1	0.0182356	-0.000221234
2	0	0	1	0	8828.96	0.117612	0.117183	-1.68074	1	0.0169445	-0.000196953
2	0	0	0	0	8829.73	0.102215	0.101715	-1.69235	1	0.0156443	-0.000172138
2	0	0	0	0	8830.5	0.0868175	0.0863482	-1.7032	1	0.0143351	-0.000147069
2	0	0	1	0	8831.26	0.0714204	0.0709823	-1.71441	1	0.013018	-0.000121693
2	0	0	0	0	8832.03	0.0560233	0.0555826	-1.72478	1	0.0116923	-9.58679e-05
2	0	0	0	0	8832.8	0.0406258	0.0401782	-1.73489	1	0.0103587	-6.97047e-05
2	0	0	1	0	8833.57	0.0252292	0.0247374	-1.74589	1	0.00901676	-4.31886e-05
2	0	0	0	0	8834.34	0.00983208	0.00934608	-1.75598	1	0.00766709	-1.64115e-05
2	1	0	1	1	8834.91	0.00182559	0.00136293	-1.68565	2	0.00666851	-2.29742e-06
2	1	0	1	1	8835.68	0.0172227	0.0167903	-1.21214	2	0.00557074	-2.03521e-05
2	1	0	0	1	8836.45	0.0326198	0.0321636	-0.881236	2	0.00477396	-2.83437e-05
2	1	0	1	1	8837.22	0.0480169	0.047593	-0.624404	2	0.004201	-2.97173e-05
2	1	0	1	1	8838.04	0.0643378	0.063937	-0.40532	2	0.00378642	-2.5915e-05
2	1	0	1	1	8838.81	0.0797348	0.0793707	-0.232756	2	0.00354497	-1.8474e-05
2	1	0	0	1	8839.58	0.0951319	0.0947398	-0.0870078	2	0.00342576	-8.2431e-06
2	1	0	0	1	8840.4	0.111453	0.1111	0.0467176	2	0.00341296	5.19031e-06
2	1	0	1	1	8841.2	0.127466	0.127098	0.160543	2	0.00349937	2.04047e-05
2	1	0	1	1	8841.97	0.142863	0.142416	0.25689	2	0.00366294	3.65851e-05
2	1	0	0	1	8842.74	0.15826	0.157912	0.343954	2	0.00389685	5.43145e-05
2	1	0	1	1	8843.51	0.173657	0.173236	0.421268	2	0.00419402	7.29787e-05
2	1	0	1	1	8844.28	0.189055	0.188684	0.492129	2	0.00454797	9.28567e-05
2	1	0	0	1	8845.05	0.204451	0.204084	0.557071	2	0.00495437	0.000113689
2	1	0	1	1	8845.82	0.219848	0.219443	0.616675	2	0.00540844	0.000135325
2	1	0	0	1	8846.59	0.235245	0.234902	0.672595	2	0.0059068	0.000157994
2	1	0	0	1	8847.36	0.250643	0.250283	0.724541	2	0.00644701	0.000181341
2	1	0	1	1	8848.13	0.26604	0.26559	0.773457	2	0.00702567	0.000205422
2	1	0	0	1	8848.9	0.281437	0.281069	0.820278	2	0.0076413	0.000230555
2	1	0	1	1	8849.66	0.296834	0.296414	0.864296	2	0.00829174	0.000256189
2	1	0	1	1	8850.43	0.312231	0.311846	0.906684	2	0.00897556	0.000282746
2	1	0	0	1	8851.2	0.327628	0.327224	0.947562	2	0.0096913	0.000310065
2	1	0	1	1	8851.97	0.343025	0.34258	0.986537	2	0.0104377	0.000337968
2	1	0	1	1	8852.76	0.35873	0.358253	1.02635	2	0.0112302	0.000367693
2	1	0	0	1	8853.55	0.374435	0.373882	1.06474	2	0.0120534	0.000398088
2	1	0	1	1	8854.31	0.389832	0.389334	1.10225	2	0.0128894	0.000429143
2	1	0	0	1	8855.08	0.405229	0.404716	1.13917	2	0.013754	0.000461039
2	1	0	0	1	8855.85	0.420625	0.420066	1.17527	2	0.0146467	0.000493692
2	1	0	1	1	8856.62	0.436023	0.435544	1.21262	2	0.0155678	0.000528149
2	1	0	0	1	8857.39	0.451421	0.450878	1.24919	2	0.0165173	0.000563231
2	1	0	1	1	8858.16	0.466818	0.466262	1.28726	2	0.0174955	0.000600201
2	1	0	1	1	8858.93	0.482215	0.481693	1.3266	2	0.018504	0.000639016
2	1	0	0	1	8859.7	0.497612	0.497104	1.36613	2	0.0195424	0.000679111
2	1	0	1	1	8860.47	0.513009	0.512508	1.40771	2	0.0206118	0.000721462
2	1	0	1	1	8861.24	0.528407	0.527848	1.44941	2	0.0217136	0.000765071
2	1	0	0	1	8862.01	0.543803	0.543295	1.49299	2	0.0228481	0.000811135
2	1	0	1	1	8862.78	0.5592	0.5587	1.53781	2	0.0240167	0.000859175
2	1	0	0	1	8863.55	0.574597	0.574065	1.58313	2	0.0252198	0.000908818
2	1	0	0	1	8864.32	0.589994	0.589501	1.63039	2	0.0264589	0.000961113
2	1	0	1	1	8865.09	0.605391	0.604902	1.67831	2	0.0277344	0.00101521
2	1	0	0	1	8865.86	0.620788	0.620227	1.72675	2	0.0290469	0.00107098
2	1	0	1	1	8866.63	0.636186	0.6357	1.77744	2	0.0303979	0.00112992
2	1	0	1	1	8867.4	0.651583	0.651062	1.82763	2	0.0317878	0.0011899
2	1	0	0	1	8868.17	0.66698	0.666484	1.87914	2	0.0332163	0.00125241
2	1	0	1	1	8868.94	0.682377	0.681909	1.93073	2	0.0346847	0.00131658
2	1	0	1	1	8869.71	0.697774	0.697228	1.98263	2	0.0361931	0.00138234
2	1	0	0	1	8870.48	0.713171	0.712711	2.03654	2	0.0377423	0.00145146
2	1	0	1	1	8871.25	0.728568	0.728061	2.0897	2	0.0393325	0.00152143
2	1	0	0	1	8872.02	0.743965	0.74346	2.14483	2	0.0409644	0.00159459
2	1	0	0	1	8872.79	0.759362	0.758901	2.20072	2	0.0426395	0.00167013
2	1	0	1	1	8873.56	0.774759	0.774286	2.25727	2	0.0443572	0.00174778
2	1	0	0	1	8874.33	0.790157	0.789677	2.31642	2	0.0461195	0.00182923
2	0	0	1	1	8874.9	0.798163	0.797687	2.27417	2	0.0474474	0.00181407
2	0	0	1	1	8875.67	0.782766	0.782222	1.74275	2	0.0489781	0.00136322
2	0	0	0	1	8876.44	0.767369	0.766831	1.33777	2	0.0501552	0.00102584
2	0	0	1	1	8877.21	0.751972	0.751446	1.0035	2	0.0510497	0.000754076
2	0	0	0	1	8877.98	0.736575	0.73603	0.717763	2	0.0517065	0.000528295
2	0	0	0	1	8878.77	0.720716	0.72025	0.465351	2	0.0521698	0.000335169
2	0	0	0	1	8879.57	0.704857	0.704411	0.244387	2	0.0524472	0.000172149
2	0	0	1	1	8880.36	0.688998	0.688578	0.0508029	2	0.0525595	3.49817e-05
2	0	0	1	1	8881.18	0.672523	0.672123	-0.125299	2	0.0525254	-8.42167e-05
2	0	0	1	1	8881.95	0.657126	0.656725	-0.272567	2	0.0523687	-0.000179002
2	0	0	0	1	8882.72	0.641728	0.641345	-0.402888	2	0.0521054	-0.00025839
2	0	0	1	1	8883.49	0.626331	0.625931	-0.521227	2	0.0517467	-0.000326253
2	0	0	0	1	8884.26	0.610934	0.610483	-0.627513	2	0.0513015	-0.000383086
2	0	0	0	1	8885.03	0.595537	0.595138	-0.722659	2	0.050779	-0.000430082
2	0	0	1	1	8885.8	0.58014	0.579705	-0.810229	2	0.0501864	-0.000469694
2	0	0	0	1	8886.57	0.564743	0.564408	-0.888546	2	0.0495299	-0.000501502
2	0	0	0	1	8887.34	0.549346	0.548921	-0.960917	2	0.0488154	-0.000527467
2	0	0	1	1	8888.13	0.533641	0.533193	-1.029	2	0.0480313	-0.000548655
2	0	0	0	1	8888.91	0.517936	0.51747	-1.09106	2	0.0471965	-0.000564593
2	0	0	1	1	8889.68	0.502539	0.501982	-1.14771	2	0.0463325	-0.000576129
2	0	0	1	1	8890.45	0.487142	0.486652	-1.19872	2	0.0454268	-0.000583359
2	0	0	0	1	8891.22	0.471745	0.471227	-1.24707	2	0.0444832	-0.000587654
2	0	0	1	1	8891.99	0.456348	0.455818	-1.29196	2	0.0435035	-0.000588898
2	0	0	0	1	8892.76	0.440951	0.440435	-1.33278	2	0.0424911	-0.000587002
2	0	0	0	1	8893.53	0.425553	0.425074	-1.37061	2	0.0414482	-0.000582612
2	0	0	1	1	8894.3	0.410156	0.409623	-1.40434	2	0.0403778	-0.000575249
2	0	0	0	1	8895.07	0.394759	0.394218	-1.43401	2	0.0392833	-0.000565313
2	0	0	0	1	8895.84	0.379361	0.378834	-1.46037	2	0.0381668	-0.000553239
2	0	0	1	1	8896.61	0.363965	0.363434	-1.48207	2	0.0370321	-0.000538634
2	0	0	0	1	8897.38	0.348568	0.34806	-1.50105	2	0.035882	-0.000522454
2	0	0	1	1	8898.15	0.333171	0.332656	-1.51733	2	0.0347183	-0.000504748
2	0	0	1	1	8898.92	0.317774	0.317259	-1.53166	2	0.0335427	-0.000485932
2	0	0	0	1	8899.69	0.302377	0.301894	-1.54541	2	0.0323564	-0.000466549
2	0	0	1	1	8900.46	0.28698	0.286527	-1.55781	2	0.0311599	-0.000446356
2	0	0	0	1	8901.23	0.271583	0.271164	-1.57051	2	0.029954	-0.000425866
2	0	0	0	1	8902	0.256185	0.255698	-1.5821	2	0.0287384	-0.00040454
2	0	0	1	1	8902.77	0.240788	0.240325	-1.59286	2	0.0275146	-0.000382803
2	0	0	0	1	8903.54	0.225391	0.22493	-1.6046	2	0.0262821	-0.000360924
2	0	0	0	1	8904.31	0.209994	0.209474	-1.61484	2	0.025041	-0.000338267
2	0	0	1	1	8905.08	0.194597	0.194139	-1.62605	2	0.0237915	-0.00031568
2	0	0	0	1	8905.85	0.1792	0.178734	-1.63754	2	0.0225333	-0.000292685
2	0	0	1	1	8906.62	0.163803	0.163288	-1.64882	2	0.0212666	-0.000269232
2	0	0	1	1	8907.39	0.148406	0.147909	-1.6609	2	0.0199906	-0.000245663
2	0	0	0	1	8908.16	0.133009	0.132543	-1.67189	2	0.0187059	-0.000221598
2	0	0	1	1	8908.93	0.117612	0.11713	-1.68339	2	0.0174127	-0.000197175
2	0	0	0	1	8909.7	0.102215	0.101771	-1.69499	2	0.0161104	-0.000172501
2	0	0	0	1	8910.47	0.0868175	0.0863492	-1.70566	2	0.0147994	-0.000147282
2	0	0	1	1	8911.24	0.0714204	0.0709845	-1.71675	2	0.0134803	-0.000121862
2	0	0	0	1	8912.01	0.0560233	0.0555783	-1.72748	2	0.0121527	-9.60104e-05
2	0	0	0	1	8912.78	0.0406258	0.0401622	-1.73764	2	0.0108171	-6.97874e-05
2	0	0	1	1	8913.55	0.0252292	0.0247384	-1.74854	2	0.00947313	-4.32562e-05
2	0	0	0	1	8914.32	0.00983208	0.00938109	-1.75879	2	0.00812132	-1.64994e-05
2	1	0	1	0	8914.89	0.00182559	0.00135444	-1.68862	3	0.00712113	-2.28714e-06
2	1	0	1	0	8915.66	0.0172227	0.0167563	-1.21484	3	0.0060211	-2.03564e-05
2	1	0	0	0	8916.43	0.0326198	0.0321689	-0.884266	3	0.00522201	-2.84458e-05
2	1	0	1	0	8917.2	0.0480169	0.0475209	-0.627359	3	0.00464683	-2.98127e-05
2	1	0	1	0	8918.01	0.0643378	0.0639476	-0.407849	3	0.0042302	-2.6081e-05
2	1	0	1	0	8918.78	0.0797348	0.0793559	-0.235157	3	0.00398682	-1.86611e-05
2	1	0	0	0	8919.55	0.0951319	0.0946835	-0.0892675	3	0.00386581	-8.45216e-06
2	1	0	0	0	8920.37	0.111453	0.111082	0.0445694	3	0.00385124	4.95084e-06
2	1	0	1	0	8921.17	0.127466	0.127071	0.158589	3	0.00393596	2.01521e-05
2	1	0	1	0	8921.94	0.142863	0.142409	0.255019	3	0.00409804	3.63171e-05
2	1	0	0	0	8922.71	0.15826	0.157876	0.342227	3	0.00433056	5.40295e-05
2	1	0	1	0	8923.48	0.173657	0.173277	0.419574	3	0.00462644	7.27025e-05
2	1	0	1	0	8924.25	0.189055	0.188649	0.490582	3	0.0049792	9.25476e-05
2	1	0	0	0	8925.02	0.204451	0.204066	0.555581	3	0.00538444	0.000113375
2	1	0	1	0	8925.79	0.219848	0.219449	0.615272	3	0.00583739	0.000135021
2	1	0	0	0	8926.56	0.235245	0.234876	0.671159	3	0.00633468	0.000157639
2	1	0	0	0	8927.33	0.250643	0.250271	0.723229	3	0.00687382	0.000181003
2	1	0	1	0	8928.1	0.26604	0.265624	0.772077	3	0.00745145	0.000205082
2	1	0	0	0	8928.87	0.281437	0.281038	0.81894	3	0.00806607	0.000230154
2	1	0	1	0	8929.64	0.296834	0.296433	0.862917	3	0.00871543	0.000255797
2	1	0	1	0	8930.41	0.312231	0.311826	0.905221	3	0.00939818	0.000282272
2	1	0	0	0	8931.18	0.327628	0.327247	0.946014	3	0.0101127	0.00030958
2	1	0	1	0	8931.95	0.343025	0.342612	0.98498	3	0.0108579	0.000337466
2	1	0	1	0	8932.73	0.35873	0.358265	1.02472	3	0.0116492	0.000367121
2	1	0	0	0	8933.52	0.374435	0.373897	1.06267	3	0.0124709	0.00039733
2	1	0	1	0	8934.29	0.389832	0.389297	1.10014	3	0.0133054	0.000428281
2	1	0	0	0	8935.06	0.405229	0.40472	1.13716	3	0.0141684	0.000460232
2	1	0	0	0	8935.83	0.420625	0.420095	1.17312	3	0.0150595	0.00049282
2	1	0	1	0	8936.6	0.436023	0.435481	1.21044	3	0.015979	0.000527123
2	1	0	0	0	8937.37	0.451421	0.450848	1.24692	3	0.0169268	0.000562169
2	1	0	1	0	8938.14	0.466818	0.466273	1.2852	3	0.0179033	0.000599253
2	1	0	1	0	8938.91	0.482215	0.481691	1.32422	3	0.0189101	0.000637863
2	1	0	0	0	8939.68	0.497612	0.497074	1.36407	3	0.0199467	0.000678046
2	1	0	1	0	8940.45	0.513009	0.512525	1.40559	3	0.0210146	0.000720402
2	1	0	1	0	8941.22	0.528407	0.527886	1.44723	3	0.0221147	0.000763975
2	1	0	0	0	8941.99	0.543803	0.543267	1.49067	3	0.0232475	0.000809831
2	1	0	1	0	8942.76	0.5592	0.558663	1.53544	3	0.0244143	0.000857794
2	1	0	0	0	8943.53	0.574597	0.574075	1.58079	3	0.0256156	0.000907491
2	1	0	0	0	8944.3	0.589994	0.589524	1.62776	3	0.0268528	0.000959605
2	1	0	1	0	8945.07	0.605391	0.604879	1.67547	3	0.0281263	0.00101345
2	1	0	0	0	8945.84	0.620788	0.62027	1.72387	3	0.0294366	0.00106926
2	1	0	1	0	8946.61	0.636186	0.635729	1.77422	3	0.0307851	0.00112792
2	1	0	1	0	8947.38	0.651583	0.651067	1.82397	3	0.0321724	0.00118753
2	1	0	0	0	8948.15	0.66698	0.666466	1.87523	3	0.033598	0.00124978
2	1	0	1	0	8948.92	0.682377	0.681841	1.92663	3	0.0350633	0.00131366
2	1	0	1	0	8949.69	0.697774	0.697236	1.97792	3	0.0365682	0.00137908
2	1	0	0	0	8950.46	0.713171	0.712627	2.03142	3	0.0381138	0.00144764
2	1	0	1	0	8951.23	0.728568	0.728086	2.08469	3	0.0397001	0.00151784
2	1	0	0	0	8952	0.743965	0.743485	2.13961	3	0.0413279	0.00159076
2	1	0	0	0	8952.77	0.759362	0.758801	2.1952	3	0.0429989	0.00166572
2	1	0	1	0	8953.53	0.774759	0.774284	2.25184	3	0.0447126	0.00174356
2	1	0	0	0	8954.3	0.790157	0.789655	2.31103	3	0.0464707	0.00182492
2	0	0	1	0	8954.87	0.798163	0.797696	2.26905	3	0.0477956	0.00181001
2	0	0	1	0	8955.64	0.782766	0.782257	1.73789	3	0.0493225	0.00135948
2	0	0	0	0	8956.41	0.767369	0.766853	1.33304	3	0.0504959	0.00102224
2	0	0	1	0	8957.18	0.751972	0.751447	0.998844	3	0.0513868	0.000750578
2	0	0	0	0	8957.95	0.736575	0.736069	0.71349	3	0.0520403	0.000525178
2	0	0	0	0	8958.75	0.720716	0.720321	0.461293	3	0.0525003	0.000332279
2	0	0	0	0	8959.54	0.704857	0.704415	0.240609	3	0.0527745	0.000169489
2	0	0	1	0	8960.33	0.688998	0.68857	0.047231	3	0.052884	3.25218e-05
2	0	0	1	0	8961.16	0.672523	0.672137	-0.128653	3	0.052847	-8.64723e-05
2	0	0	1	0	8961.93	0.657126	0.656744	-0.275607	3	0.0526878	-0.000181003
2	0	0	0	0	8962.7	0.641728	0.641338	-0.405817	3	0.0524222	-0.000260266
2	0	0	1	0	8963.47	0.626331	0.625966	-0.523928	3	0.0520614	-0.000327961
2	0	0	0	0	8964.24	0.610934	0.610496	-0.630039	3	0.0516141	-0.000384636
2	0	0	0	0	8965.01	0.595537	0.595119	-0.725123	3	0.0510898	-0.000431535
2	0	0	1	0	8965.78	0.58014	0.579686	-0.812555	3	0.0504953	-0.000471027
2	0	0	0	0	8966.55	0.564743	0.56433	-0.890822	3	0.049837	-0.000502718
2	0	0	0	0	8967.32	0.549346	0.548975	-0.96309	3	0.0491208	-0.000528712
2	0	0	1	0	8968.1	0.533641	0.533141	-1.03124	3	0.048335	-0.000549797
2	0	0	0	0	8968.89	0.517936	0.517419	-1.09323	3	0.0474986	-0.000565657
2	0	0	1	0	8969.66	0.502539	0.502027	-1.14947	3	0.0466332	-0.000577066
2	0	0	1	0	8970.43	0.487142	0.486627	-1.20049	3	0.045726	-0.000584192
2	0	0	0	0	8971.2	0.471745	0.471258	-1.24891	3	0.0447811	-0.000588559
2	0	0	1	0	8971.97	0.456348	0.455807	-1.29395	3	0.0438	-0.00058979
2	0	0	0	0	8972.74	0.440951	0.440416	-1.33433	3	0.0427862	-0.000587662
2	0	0	0	0	8973.51	0.425553	0.425034	-1.37197	3	0.0417421	-0.000583135
2	0	0	1	0	8974.28	0.410156	0.40966	-1.4058	3	0.0406706	-0.000575899
2	0	0	0	0	8975.05	0.394759	0.394264	-1.43531	3	0.039575	-0.000565892
2	0	0	0	0	8975.81	0.379361	0.378844	-1.46138	3	0.0384577	-0.000553635
2	0	0	1	0	8976.58	0.363965	0.363482	-1.48277	3	0.0373222	-0.000538959
2	0	0	0	0	8977.35	0.348568	0.348037	-1.50177	3	0.0361716	-0.00052267
2	0	0	1	0	8978.12	0.333171	0.332646	-1.51784	3	0.0350074	-0.000504902
2	0	0	1	0	8978.89	0.317774	0.317285	-1.53191	3	0.0338315	-0.000486052
2	0	0	0	0	8979.66	0.302377	0.301896	-1.5457	3	0.0326448	-0.00046664
2	0	0	1	0	8980.43	0.28698	0.28651	-1.558	3	0.0314482	-0.000446382
2	0	0	0	0	8981.2	0.271583	0.271144	-1.57032	3	0.0302423	-0.000425785
2	0	0	0	0	8981.97	0.256185	0.255691	-1.58181	3	0.0290268	-0.000404454
2	0	0	1	0	8982.74	0.240788	0.240345	-1.59237	3	0.0278033	-0.000382719
2	0	0	0	0	8983.51	0.225391	0.224868	-1.6038	3	0.0265713	-0.000360643
2	0	0	0	0	8984.28	0.209994	0.209514	-1.61386	3	0.0253307	-0.000338127
2	0	0	1	0	8985.05	0.194597	0.194159	-1.62507	3	0.0240821	-0.000315523
2	0	0	0	0	8985.82	0.1792	0.178709	-1.63622	3	0.0228248	-0.000292406
2	0	0	1	0	8986.59	0.163803	0.163345	-1.64714	3	0.0215591	-0.000269052
2	0	0	1	0	8987.36	0.148406	0.14793	-1.65925	3	0.0202843	-0.000245454
2	0	0	0	0	8988.13	0.133009	0.132534	-1.67011	3	0.019001	-0.000221346
2	0	0	1	0	8988.9	0.117612	0.117115	-1.68159	3	0.0177091	-0.000196939
2	0	0	0	0	8989.67	0.102215	0.101709	-1.69306	3	0.0164082	-0.000172199
2	0	0	0	0	8990.44	0.0868175	0.0863556	-1.70396	3	0.0150986	-0.000147146
2	0	0	1	0	8991.21	0.0714204	0.0709505	-1.71507	3	0.0137809	-0.000121685
2	0	0	0	0	8991.98	0.0560233	0.0555316	-1.72578	3	0.0124546	-9.58356e-05
2	0	0	0	0	8992.75	0.0406258	0.0401674	-1.73606	3	0.0111202	-6.97331e-05
2	0	0	1	0	8993.52	0.0252292	0.0247395	-1.74718	3	0.00977734	-4.32243e-05
2	0	0	0	0	8994.29	0.00983208	0.00940018	-1.75745	3	0.00842659	-1.65204e-05
2	1	0	1	1	8994.86	0.00182559	0.00130989	-1.68729	4	0.00742715	-2.21016e-06
2	1	0	1	1	8995.63	0.0172227	0.0167213	-1.21347	4	0.00632819	-2.02908e-05
2	1	0	0	1	8996.4	0.0326198	0.0321699	-0.882844	4	0.00553022	-2.8401e-05
2	1	0	1	1	8997.17	0.0480169	0.0475559	-0.625817	4	0.00495609	-2.97613e-05
2	1	0	1	1	8997.99	0.0643378	0.0638882	-0.406658	4	0.00454064	-2.59806e-05
2	1	0	1	1	8998.76	0.0797348	0.0793697	-0.233978	4	0.00429819	-1.85708e-05
2	1	0	0	1	8999.53	0.0951319	0.0947525	-0.0880824	4	0.00417809	-8.34602e-06
2	1	0	0	1	9000.34	0.111453	0.111108	0.0457053	4	0.00416443	5.07823e-06
2	1	0	1	1	9001.14	0.127466	0.127061	0.159666	4	0.00425004	2.02873e-05
2	1	0	1	1	9001.91	0.142863	0.142454	0.25608	4	0.00441295	3.64797e-05
2	1	0	0	1	9002.68	0.15826	0.157897	0.343252	4	0.00464631	5.41986e-05
2	1	0	1	1	9003.45	0.173657	0.173241	0.420546	4	0.00494297	7.28558e-05
2	1	0	1	1	9004.22	0.189055	0.188634	0.491541	4	0.00529649	9.27211e-05
2	1	0	0	1	9004.99	0.204451	0.204034	0.556534	4	0.00570245	0.000113552
2	1	0	1	1	9005.76	0.219848	0.21945	0.616202	4	0.00615615	0.000135225
2	1	0	0	1	9006.53	0.235245	0.234852	0.672086	4	0.00665414	0.000157841
2	1	0	0	1	9007.3	0.250643	0.250243	0.724033	4	0.00719394	0.000181184
2	1	0	1	1	9008.07	0.26604	0.265662	0.772827	4	0.00777216	0.000205311
2	1	0	0	1	9008.84	0.281437	0.281008	0.819559	4	0.00838726	0.000230302
2	1	0	1	1	9009.61	0.296834	0.296424	0.863472	4	0.00903711	0.000255954
2	1	0	1	1	9010.38	0.312231	0.311805	0.905649	4	0.00972026	0.000282386
2	1	0	0	1	9011.15	0.327628	0.327204	0.946352	4	0.0104351	0.00030965
2	1	0	1	1	9011.92	0.343025	0.342573	0.985195	4	0.0111805	0.000337501
2	1	0	1	1	9012.71	0.35873	0.358279	1.02494	4	0.0119719	0.000367215
2	1	0	0	1	9013.49	0.374435	0.37393	1.063	4	0.0127939	0.000397489
2	1	0	1	1	9014.26	0.389832	0.389299	1.10036	4	0.0136285	0.000428369
2	1	0	0	1	9015.03	0.405229	0.404744	1.1371	4	0.0144916	0.000460234
2	1	0	0	1	9015.8	0.420625	0.420132	1.17303	4	0.0153827	0.000492828
2	1	0	1	1	9016.57	0.436023	0.435486	1.21031	4	0.016302	0.000527074
2	1	0	0	1	9017.34	0.451421	0.450888	1.24676	4	0.0172497	0.000562147
2	1	0	1	1	9018.11	0.466818	0.46625	1.28468	4	0.018226	0.000598983
2	1	0	1	1	9018.88	0.482215	0.481701	1.32392	4	0.0192325	0.000637734
2	1	0	0	1	9019.65	0.497612	0.497045	1.36346	4	0.0202687	0.000677703
2	1	0	1	1	9020.42	0.513009	0.512454	1.40467	4	0.0213361	0.000719828
2	1	0	1	1	9021.19	0.528407	0.527874	1.44662	4	0.0224357	0.000763633
2	1	0	0	1	9021.96	0.543803	0.543261	1.49001	4	0.0235678	0.000809466
2	1	0	1	1	9022.73	0.5592	0.558664	1.53456	4	0.024734	0.000857302
2	1	0	0	1	9023.5	0.574597	0.57407	1.57964	4	0.0259346	0.000906822
2	1	0	0	1	9024.27	0.589994	0.589416	1.62675	4	0.027171	0.000958835
2	1	0	1	1	9025.04	0.605391	0.604889	1.6743	4	0.0284435	0.00101276
2	1	0	0	1	9025.81	0.620788	0.620294	1.72253	4	0.0297528	0.00106847
2	1	0	1	1	9026.58	0.636186	0.635691	1.7728	4	0.0311004	0.00112695
2	1	0	1	1	9027.35	0.651583	0.651057	1.82238	4	0.0324865	0.00118648
2	1	0	0	1	9028.12	0.66698	0.666484	1.87354	4	0.0339108	0.00124868
2	1	0	1	1	9028.89	0.682377	0.681856	1.92484	4	0.0353748	0.00131247
2	1	0	1	1	9029.66	0.697774	0.697262	1.97618	4	0.0368784	0.00137792
2	1	0	0	1	9030.43	0.713171	0.712721	2.02963	4	0.0384226	0.00144656
2	1	0	1	1	9031.2	0.728568	0.72805	2.08261	4	0.0400075	0.00151624
2	1	0	0	1	9031.97	0.743965	0.743495	2.13754	4	0.0416338	0.00158925
2	1	0	0	1	9032.74	0.759362	0.7589	2.19331	4	0.0433031	0.00166451
2	1	0	1	1	9033.51	0.774759	0.774248	2.24986	4	0.0450152	0.00174195
2	1	0	0	1	9034.28	0.790157	0.789679	2.3092	4	0.0467718	0.00182353
2	0	0	1	1	9034.85	0.798163	0.797682	2.26711	4	0.0480956	0.00180843
2	0	0	1	1	9035.62	0.782766	0.782226	1.7357	4	0.0496208	0.00135771
2	0	0	0	1	9036.39	0.767369	0.766791	1.33085	4	0.0507926	0.00102048
2	0	0	1	1	9037.16	0.751972	0.751517	0.997137	4	0.0516821	0.000749365
2	0	0	0	1	9037.93	0.736575	0.736082	0.711772	4	0.0523341	0.000523922
2	0	0	0	1	9038.72	0.720716	0.720252	0.459544	4	0.0527927	0.000330987
2	0	0	0	1	9039.51	0.704857	0.704437	0.239075	4	0.0530657	0.000168413
2	0	0	1	1	9040.31	0.688998	0.688555	0.0458347	4	0.053174	3.15597e-05
2	0	0	1	1	9041.13	0.672523	0.672137	-0.13002	4	0.0531359	-8.73915e-05
2	0	0	1	1	9041.9	0.657126	0.656663	-0.276891	4	0.0529757	-0.000181824
2	0	0	0	1	9042.67	0.641728	0.641289	-0.406934	4	0.0527092	-0.000260962
2	0	0	1	1	9043.44	0.626331	0.62591	-0.525068	4	0.0523475	-0.000328646
2	0	0	0	1	9044.21	0.610934	0.610472	-0.631082	4	0.0518994	-0.000385258
2	0	0	0	1	9044.98	0.595537	0.595083	-0.726108	4	0.0513742	-0.000432095
2	0	0	1	1	9045.75	0.58014	0.579724	-0.81343	4	0.0507791	-0.000471565
2	0	0	0	1	9046.52	0.564743	0.564326	-0.891614	4	0.0501201	-0.000503161
2	0	0	0	1	9047.29	0.549346	0.54889	-0.9639	4	0.0494033	-0.000529075
2	0	0	1	1	9048.07	0.533641	0.533138	-1.03213	4	0.0486169	-0.000550269
2	0	0	0	1	9048.86	0.517936	0.517471	-1.09377	4	0.0477799	-0.000565995
2	0	0	1	1	9049.63	0.502539	0.502056	-1.15022	4	0.0469139	-0.000577473
2	0	0	1	1	9050.4	0.487142	0.486674	-1.20134	4	0.0460062	-0.000584662
2	0	0	0	1	9051.17	0.471745	0.471233	-1.24953	4	0.0450607	-0.000588822
2	0	0	1	1	9051.94	0.456348	0.455808	-1.29447	4	0.0440791	-0.000590032
2	0	0	0	1	9052.71	0.440951	0.440448	-1.33498	4	0.0430649	-0.000587989
2	0	0	0	1	9053.48	0.425553	0.425039	-1.37267	4	0.0420204	-0.00058344
2	0	0	1	1	9054.25	0.410156	0.409639	-1.40621	4	0.0409484	-0.000576039
2	0	0	0	1	9055.02	0.394759	0.39425	-1.43576	4	0.0398525	-0.000566048
2	0	0	0	1	9055.79	0.379361	0.378851	-1.46189	4	0.0387349	-0.000553837
2	0	0	1	1	9056.56	0.363965	0.363463	-1.483	4	0.0375992	-0.000539014
2	0	0	0	1	9057.33	0.348568	0.348051	-1.50184	4	0.0364485	-0.000522716
2	0	0	1	1	9058.1	0.333171	0.332611	-1.51788	4	0.0352843	-0.000504863
2	0	0	1	1	9058.87	0.317774	0.317254	-1.53166	4	0.0341085	-0.000485926
2	0	0	0	1	9059.64	0.302377	0.301919	-1.54541	4	0.032922	-0.000466589
2	0	0	1	1	9060.41	0.28698	0.286529	-1.55754	4	0.0317257	-0.000446281
2	0	0	0	1	9061.18	0.271583	0.271118	-1.56985	4	0.0305201	-0.000425614
2	0	0	0	1	9061.95	0.256185	0.25571	-1.58129	4	0.0293049	-0.000404352
2	0	0	1	1	9062.72	0.240788	0.240313	-1.59178	4	0.0280819	-0.000382525
2	0	0	0	1	9063.49	0.225391	0.224894	-1.60307	4	0.0268504	-0.000360522
2	0	0	0	1	9064.26	0.209994	0.209523	-1.61288	4	0.0256106	-0.000337934
2	0	0	1	1	9065.03	0.194597	0.194136	-1.62385	4	0.0243627	-0.000315248
2	0	0	0	1	9065.8	0.1792	0.178735	-1.63502	4	0.0231063	-0.000292236
2	0	0	1	1	9066.57	0.163803	0.163359	-1.64599	4	0.0218416	-0.000268887
2	0	0	1	1	9067.34	0.148406	0.147914	-1.65781	4	0.0205679	-0.000245214
2	0	0	0	1	9068.11	0.133009	0.132534	-1.66866	4	0.0192856	-0.000221153
2	0	0	1	1	9068.88	0.117612	0.117116	-1.68005	4	0.0179949	-0.000196761
2	0	0	0	1	9069.65	0.102215	0.101734	-1.6915	4	0.0166953	-0.000172083
2	0	0	0	1	9070.42	0.0868175	0.0863641	-1.70218	4	0.0153869	-0.000147007
2	0	0	1	1	9071.19	0.0714204	0.0709335	-1.71352	4	0.0140704	-0.000121546
2	0	0	0	1	9071.96	0.0560233	0.0555231	-1.72439	4	0.0127453	-9.57434e-05
2	0	0	0	1	9072.73	0.0406258	0.0401929	-1.73446	4	0.0114121	-6.9713e-05
2	0	0	1	1	9073.5	0.0252292	0.0247437	-1.74574	4	0.0100704	-4.31961e-05
2	0	0	0	1	9074.27	0.00983208	0.00938002	-1.75607	4	0.00872073	-1.6472e-05
2	1	0	1	0	9074.84	0.00182559	0.00128655	-1.68631	5	0.007722	-2.16952e-06
2	1	0	1	0	9075.61	0.0172227	0.0167914	-1.21224	5	0.00662385	-2.03551e-05
2	1	0	0	0	9076.38	0.0326198	0.0321264	-0.881914	5	0.00582673	-2.83327e-05
2	1	0	1	0	9077.14	0.0480169	0.0475739	-0.624652	5	0.0052535	-2.97172e-05
2	1	0	1	0	9077.96	0.0643378	0.0639126	-0.405442	5	0.00483893	-2.59129e-05
2	1	0	1	0	9078.73	0.0797348	0.0793559	-0.232821	5	0.00459742	-1.84757e-05
2	1	0	0	0	9079.5	0.0951319	0.0947397	-0.0869297	5	0.0044782	-8.2357e-06
2	1	0	0	0	9080.32	0.111453	0.111073	0.0468851	5	0.00446551	5.20768e-06
2	1	0	1	0	9081.12	0.127466	0.127097	0.160792	5	0.00455208	2.04361e-05
2	1	0	1	0	9081.89	0.142863	0.142418	0.25719	5	0.00471587	3.66285e-05
2	1	0	0	0	9082.66	0.15826	0.15789	0.344336	5	0.00495004	5.43672e-05
2	1	0	1	0	9083.43	0.173657	0.173268	0.421681	5	0.00524755	7.3064e-05
2	1	0	1	0	9084.2	0.189055	0.188661	0.492612	5	0.00560188	9.29368e-05
2	1	0	0	0	9084.97	0.204451	0.204035	0.557547	5	0.00600863	0.000113759
2	1	0	1	0	9085.74	0.219848	0.21946	0.617126	5	0.00646306	0.000135435
2	1	0	0	0	9086.51	0.235245	0.234851	0.672941	5	0.00696172	0.000158041
2	1	0	0	0	9087.28	0.250643	0.250286	0.724809	5	0.00750215	0.00018141
2	1	0	1	0	9088.05	0.26604	0.265632	0.773543	5	0.00808096	0.000205478
2	1	0	0	0	9088.82	0.281437	0.281033	0.820316	5	0.00869663	0.000230536
2	1	0	1	0	9089.59	0.296834	0.29645	0.864104	5	0.00934696	0.000256163
2	1	0	1	0	9090.36	0.312231	0.311831	0.906144	5	0.0100305	0.000282564
2	1	0	0	0	9091.13	0.327628	0.327187	0.946758	5	0.0107457	0.000309767
2	1	0	1	0	9091.9	0.343025	0.3426	0.985485	5	0.0114914	0.000337627
2	1	0	1	0	9092.68	0.35873	0.358268	1.02512	5	0.012283	0.000367268
2	1	0	0	0	9093.47	0.374435	0.3739	1.06274	5	0.013105	0.000397357
2	1	0	1	0	9094.24	0.389832	0.389401	1.10037	5	0.0139395	0.000428486
2	1	0	0	0	9095.01	0.405229	0.404763	1.13707	5	0.0148026	0.000460244
2	1	0	0	0	9095.78	0.420625	0.420118	1.1729	5	0.0156936	0.000492756
2	1	0	1	0	9096.55	0.436023	0.435524	1.21014	5	0.0166128	0.000527047
2	1	0	0	0	9097.32	0.451421	0.450866	1.24656	5	0.0175604	0.000562029
2	1	0	1	0	9098.08	0.466818	0.466314	1.28467	5	0.0185366	0.000599061
2	1	0	1	0	9098.85	0.482215	0.4817	1.32391	5	0.0195431	0.000637728
2	1	0	0	0	9099.62	0.497612	0.497067	1.36331	5	0.0205792	0.000677655
2	1	0	1	0	9100.39	0.513009	0.512493	1.40473	5	0.0216464	0.000719915
2	1	0	1	0	9101.16	0.528407	0.527867	1.4463	5	0.0227459	0.000763457
2	1	0	0	0	9101.93	0.543803	0.543317	1.48961	5	0.0238779	0.000809332
2	1	0	1	0	9102.7	0.5592	0.558717	1.53428	5	0.0250439	0.000857226
2	1	0	0	0	9103.47	0.574597	0.574073	1.5793	5	0.0262443	0.000906632
2	1	0	0	0	9104.24	0.589994	0.589469	1.62618	5	0.0274803	0.000958583
2	1	0	1	0	9105.01	0.605391	0.604835	1.67362	5	0.0287524	0.00101227
2	1	0	0	0	9105.78	0.620788	0.620228	1.72181	5	0.0300611	0.00106791
2	1	0	1	0	9106.55	0.636186	0.635679	1.77172	5	0.0314079	0.00112625
2	1	0	1	0	9107.32	0.651583	0.651063	1.82126	5	0.0327932	0.00118575
2	1	0	0	0	9108.09	0.66698	0.666525	1.87239	5	0.0342166	0.00124799
2	1	0	1	0	9108.86	0.682377	0.681969	1.92358	5	0.0356796	0.00131183
2	1	0	1	0	9109.63	0.697774	0.697239	1.97468	5	0.0371822	0.00137683
2	1	0	0	0	9110.4	0.713171	0.712664	2.0282	5	0.0387252	0.00144543
2	1	0	1	0	9111.17	0.728568	0.728038	2.08126	5	0.0403089	0.00151523
2	1	0	0	0	9111.94	0.743965	0.743426	2.13602	5	0.0419341	0.00158798
2	1	0	0	0	9112.71	0.759362	0.758873	2.19181	5	0.0436024	0.0016633
2	1	0	1	0	9113.48	0.774759	0.774225	2.24826	5	0.0453132	0.00174066
2	1	0	0	0	9114.25	0.790157	0.789673	2.30761	5	0.0470686	0.00182226
2	0	0	1	0	9114.82	0.798163	0.797708	2.26557	5	0.0483916	0.00180726
2	0	0	1	0	9115.59	0.782766	0.782243	1.7342	5	0.0499156	0.00135657
2	0	0	0	0	9116.36	0.767369	0.76688	1.3297	5	0.0510864	0.00101972
2	0	0	1	0	9117.13	0.751972	0.751464	0.995744	5	0.0519749	0.000748266
2	0	0	0	0	9117.9	0.736575	0.736044	0.71053	5	0.0526259	0.000522981
2	0	0	0	0	9118.69	0.720716	0.720287	0.458501	5	0.0530836	0.000330252
2	0	0	0	0	9119.49	0.704857	0.704432	0.238073	5	0.0533558	0.000167706
2	0	0	1	0	9120.28	0.688998	0.688555	0.0449082	5	0.0534633	3.09218e-05
2	0	0	1	0	9121.1	0.672523	0.67212	-0.130882	5	0.0534245	-8.79687e-05
2	0	0	1	0	9121.87	0.657126	0.656771	-0.277659	5	0.0532637	-0.000182359
2	0	0	0	0	9122.64	0.641728	0.641329	-0.407715	5	0.0529966	-0.000261479
2	0	0	1	0	9123.41	0.626331	0.625956	-0.525679	5	0.0526343	-0.000329052
2	0	0	0	0	9124.18	0.610934	0.610519	-0.631617	5	0.0521858	-0.000385614
2	0	0	0	0	9124.95	0.595537	0.595134	-0.72665	5	0.0516602	-0.000432454
2	0	0	1	0	9125.72	0.58014	0.579709	-0.813937	5	0.0510647	-0.000471847
2	0	0	0	0	9126.49	0.564743	0.564328	-0.892078	5	0.0504054	-0.000503425
2	0	0	0	0	9127.26	0.549346	0.548906	-0.964351	5	0.0496882	-0.000529338
2	0	0	1	0	9128.05	0.533641	0.533135	-1.03263	5	0.0489015	-0.000550533
2	0	0	0	0	9128.83	0.517936	0.517439	-1.09428	5	0.0480641	-0.000566224
2	0	0	1	0	9129.6	0.502539	0.502026	-1.1507	5	0.0471978	-0.000577682
2	0	0	1	0	9130.37	0.487142	0.486694	-1.20182	5	0.0462898	-0.000584917
2	0	0	0	0	9131.14	0.471745	0.471245	-1.25	5	0.045344	-0.000589054
2	0	0	1	0	9131.91	0.456348	0.455842	-1.29489	5	0.0443621	-0.000590267
2	0	0	0	0	9132.68	0.440951	0.440422	-1.33554	5	0.0433475	-0.0005882
2	0	0	0	0	9133.45	0.425553	0.425031	-1.37299	5	0.0423026	-0.000583562
2	0	0	1	0	9134.22	0.410156	0.409618	-1.4066	5	0.0412304	-0.00057617
2	0	0	0	0	9134.99	0.394759	0.394281	-1.43595	5	0.0401343	-0.000566166
2	0	0	0	0	9135.76	0.379361	0.378848	-1.46186	5	0.0390165	-0.000553821
2	0	0	1	0	9136.53	0.363965	0.363488	-1.48298	5	0.0378808	-0.000539047
2	0	0	0	0	9137.3	0.348568	0.348023	-1.50183	5	0.03673	-0.000522673
2	0	0	1	0	9138.07	0.333171	0.332636	-1.51757	5	0.035566	-0.0005048
2	0	0	1	0	9138.84	0.317774	0.317263	-1.5315	5	0.0343903	-0.000485887
2	0	0	0	0	9139.61	0.302377	0.301874	-1.54534	5	0.033204	-0.000466499
2	0	0	1	0	9140.38	0.28698	0.286493	-1.55719	5	0.0320079	-0.000446124
2	0	0	0	0	9141.15	0.271583	0.271161	-1.56943	5	0.0308025	-0.000425568
2	0	0	0	0	9141.92	0.256185	0.255725	-1.58102	5	0.0295877	-0.000404305
2	0	0	1	0	9142.69	0.240788	0.240343	-1.59109	5	0.0283651	-0.000382407
2	0	0	0	0	9143.46	0.225391	0.224914	-1.60237	5	0.0271341	-0.000360396
2	0	0	0	0	9144.23	0.209994	0.209578	-1.61217	5	0.0258948	-0.000337875
2	0	0	1	0	9145	0.194597	0.194199	-1.62316	5	0.0246476	-0.000315216
2	0	0	0	0	9145.77	0.1792	0.178675	-1.63409	5	0.0233918	-0.00029197
2	0	0	1	0	9146.54	0.163803	0.16339	-1.64493	5	0.0221278	-0.000268764
2	0	0	1	0	9147.31	0.148406	0.14796	-1.65667	5	0.020855	-0.00024512
2	0	0	0	0	9148.08	0.133009	0.132544	-1.6674	5	0.0195735	-0.000221004
2	0	0	1	0	9148.85	0.117612	0.117155	-1.67893	5	0.0182838	-0.000196696
2	0	0	0	0	9149.62	0.102215	0.101679	-1.69032	5	0.016985	-0.00017187
2	0	0	0	0	9150.39	0.0868175	0.0863864	-1.701	5	0.0156775	-0.000146943
2	0	0	1	0	9151.16	0.0714204	0.0709632	-1.71229	5	0.014362	-0.00012151
2	0	0	0	0	9151.93	0.0560233	0.0555433	-1.72308	5	0.0130378	-9.57058e-05
2	0	0	0	0	9152.7	0.0406258	0.0401887	-1.73344	5	0.0117055	-6.96644e-05
2	0	0	1	0	9153.47	0.0252292	0.0247437	-1.74469	5	0.0103646	-4.31701e-05
2	0	0	0	0	9154.24	0.00983208	0.00939594	-1.7551	5	0.00901573	-1.64908e-05
2	1	0	1	1	9154.81	0.00182559	0.00136187	-1.68506	6	0.00801757	-2.29483e-06
2	1	0	1	1	9155.58	0.0172227	0.0167065	-1.21136	6	0.0069203	-2.02376e-05
2	1	0	0	1	9156.35	0.0326198	0.0321561	-0.880765	6	0.00612392	-2.8322e-05
2	1	0	1	1	9157.12	0.0480169	0.047593	-0.623858	6	0.0055513	-2.96913e-05
2	1	0	1	1	9157.93	0.0643378	0.0639222	-0.404536	6	0.00513754	-2.58588e-05
2	1	0	1	1	9158.7	0.0797348	0.0793623	-0.231816	6	0.00489674	-1.83974e-05
2	1	0	0	1	9159.47	0.0951319	0.0947291	-0.0860327	6	0.00477827	-8.1498e-06
2	1	0	0	1	9160.29	0.111453	0.111091	0.0478	6	0.00476633	5.31015e-06
2	1	0	1	1	9161.09	0.127466	0.127083	0.161652	6	0.00485357	2.05432e-05
2	1	0	1	1	9161.86	0.142863	0.142451	0.25807	6	0.00501802	3.67624e-05
2	1	0	0	1	9162.63	0.15826	0.157888	0.345124	6	0.00525283	5.44908e-05
2	1	0	1	1	9163.4	0.173657	0.173251	0.422458	6	0.00555095	7.31915e-05
2	1	0	1	1	9164.17	0.189055	0.188684	0.493378	6	0.00590587	9.30923e-05
2	1	0	0	1	9164.94	0.204451	0.204046	0.558246	6	0.0063132	0.000113908
2	1	0	1	1	9165.71	0.219848	0.2194	0.617844	6	0.00676819	0.000135555
2	1	0	0	1	9166.48	0.235245	0.234813	0.67369	6	0.00726741	0.000158191
2	1	0	0	1	9167.25	0.250643	0.25026	0.725496	6	0.0078084	0.000181563
2	1	0	1	1	9168.02	0.26604	0.265625	0.774146	6	0.00838769	0.000205632
2	1	0	0	1	9168.79	0.281437	0.281058	0.820793	6	0.00900375	0.000230691
2	1	0	1	1	9169.56	0.296834	0.296416	0.864504	6	0.00965445	0.000256253
2	1	0	1	1	9170.33	0.312231	0.311856	0.906561	6	0.0103383	0.000282716
2	1	0	0	1	9171.1	0.327628	0.327174	0.947029	6	0.0110538	0.000309843
2	1	0	1	1	9171.87	0.343025	0.342564	0.985818	6	0.0117997	0.000337706
2	1	0	1	1	9172.65	0.35873	0.358289	1.02527	6	0.0125916	0.000367342
2	1	0	0	1	9173.44	0.374435	0.373873	1.06298	6	0.0134137	0.000397419
2	1	0	1	1	9174.21	0.389832	0.389332	1.10015	6	0.0142481	0.000428322
2	1	0	0	1	9174.98	0.405229	0.404662	1.13661	6	0.0151111	0.000459942
2	1	0	0	1	9175.75	0.420625	0.420099	1.1728	6	0.0160019	0.000492694
2	1	0	1	1	9176.52	0.436023	0.43548	1.20987	6	0.0169209	0.000526875
2	1	0	0	1	9177.29	0.451421	0.450885	1.24628	6	0.0178684	0.000561928
2	1	0	1	1	9178.06	0.466818	0.466267	1.28432	6	0.0188443	0.000598836
2	1	0	1	1	9178.83	0.482215	0.481714	1.32362	6	0.0198505	0.000637605
2	1	0	0	1	9179.6	0.497612	0.49709	1.36288	6	0.0208864	0.000677473
2	1	0	1	1	9180.37	0.513009	0.5125	1.4046	6	0.0219535	0.000719856
2	1	0	1	1	9181.14	0.528407	0.527872	1.44611	6	0.0230528	0.000763358
2	1	0	0	1	9181.91	0.543803	0.543313	1.48941	6	0.0241847	0.000809215
2	1	0	1	1	9182.68	0.5592	0.558707	1.53404	6	0.0253504	0.000857081
2	1	0	0	1	9183.45	0.574597	0.574086	1.5791	6	0.0265506	0.000906538
2	1	0	0	1	9184.22	0.589994	0.589499	1.62591	6	0.0277865	0.000958472
2	1	0	1	1	9184.99	0.605391	0.604896	1.67317	6	0.0290584	0.00101209
2	1	0	0	1	9185.76	0.620788	0.62027	1.7213	6	0.0303668	0.00106767
2	1	0	1	1	9186.53	0.636186	0.635706	1.77136	6	0.0317132	0.00112607
2	1	0	1	1	9187.3	0.651583	0.651089	1.8207	6	0.0330981	0.00118544
2	1	0	0	1	9188.07	0.66698	0.666477	1.87169	6	0.0345211	0.00124744
2	1	0	1	1	9188.84	0.682377	0.68188	1.92291	6	0.0359835	0.00131119
2	1	0	1	1	9189.61	0.697774	0.697232	1.97393	6	0.0374855	0.00137629
2	1	0	0	1	9190.38	0.713171	0.712666	2.02722	6	0.0390278	0.00144473
2	1	0	1	1	9191.15	0.728568	0.728039	2.0799	6	0.0406107	0.00151425
2	1	0	0	1	9191.92	0.743965	0.743488	2.13492	6	0.0422349	0.00158728
2	1	0	0	1	9192.69	0.759362	0.758875	2.19056	6	0.0439022	0.00166236
2	1	0	1	1	9193.46	0.774759	0.774227	2.2468	6	0.045612	0.00173953
2	1	0	0	1	9194.23	0.790157	0.789602	2.30648	6	0.0473665	0.0018212
2	0	0	1	1	9194.8	0.798163	0.797726	2.26456	6	0.0486888	0.0018065
2	0	0	1	1	9195.57	0.782766	0.782249	1.73314	6	0.0502121	0.00135574
2	0	0	0	1	9196.34	0.767369	0.76684	1.3288	6	0.0513821	0.00101898
2	0	0	1	1	9197.11	0.751972	0.751453	0.994847	6	0.0522697	0.000747581
2	0	0	0	1	9197.88	0.736575	0.736054	0.709574	6	0.0529201	0.000522285
2	0	0	0	1	9198.67	0.720716	0.72027	0.457744	6	0.0533771	0.000329699
2	0	0	0	1	9199.46	0.704857	0.704405	0.237376	6	0.0536487	0.000167209
2	0	0	1	1	9200.25	0.688998	0.688551	0.0442758	6	0.0537557	3.04861e-05
2	0	0	1	1	9201.08	0.672523	0.672135	-0.131419	6	0.0537164	-8.83316e-05
2	0	0	1	1	9201.85	0.657126	0.656725	-0.278197	6	0.0535551	-0.000182699
2	0	0	0	1	9202.62	0.641728	0.641328	-0.408194	6	0.0532876	-0.000261786
2	0	0	1	1	9203.39	0.626331	0.625937	-0.526137	6	0.052925	-0.000329328
2	0	0	0	1	9204.16	0.610934	0.610499	-0.632079	6	0.0524761	-0.000385884
2	0	0	0	1	9204.93	0.595537	0.595118	-0.727064	6	0.0519501	-0.000432689
2	0	0	1	1	9205.7	0.58014	0.579676	-0.814383	6	0.0513542	-0.000472078
2	0	0	0	1	9206.47	0.564743	0.56434	-0.892486	6	0.0506946	-0.000503666
2	0	0	0	1	9207.24	0.549346	0.548918	-0.964707	6	0.0499772	-0.000529545
2	0	0	1	1	9208.02	0.533641	0.533144	-1.03302	6	0.0491902	-0.000550746
2	0	0	0	1	9208.81	0.517936	0.517439	-1.09448	6	0.0483524	-0.000566325
2	0	0	1	1	9209.58	0.502539	0.502036	-1.15116	6	0.0474859	-0.000577922
2	0	0	1	1	9210.35	0.487142	0.486663	-1.20213	6	0.0465776	-0.00058503
2	0	0	0	1	9211.12	0.471745	0.471247	-1.25024	6	0.0456314	-0.000589175
2	0	0	1	1	9211.89	0.456348	0.455833	-1.29527	6	0.0446493	-0.000590426
2	0	0	0	1	9212.66	0.440951	0.440491	-1.33598	6	0.0436344	-0.000588489
2	0	0	0	1	9213.43	0.425553	0.42503	-1.37327	6	0.0425892	-0.000583681
2	0	0	1	1	9214.2	0.410156	0.409656	-1.40694	6	0.0415168	-0.000576361
2	0	0	0	1	9214.97	0.394759	0.394253	-1.43617	6	0.0404204	-0.000566214
2	0	0	0	1	9215.74	0.379361	0.378797	-1.46197	6	0.0393025	-0.000553791
2	0	0	1	1	9216.51	0.363965	0.363492	-1.48317	6	0.0381667	-0.000539119
2	0	0	0	1	9217.28	0.348568	0.348044	-1.50168	6	0.0370159	-0.00052265
2	0	0	1	1	9218.05	0.333171	0.332645	-1.51753	6	0.0358519	-0.000504797
2	0	0	1	1	9218.82	0.317774	0.317285	-1.53134	6	0.0346763	-0.000485872
2	0	0	0	1	9219.59	0.302377	0.301895	-1.54502	6	0.0334902	-0.000466433
2	0	0	1	1	9220.35	0.28698	0.286503	-1.55706	6	0.0322943	-0.000446101
2	0	0	0	1	9221.12	0.271583	0.271168	-1.56921	6	0.0310891	-0.000425519
2	0	0	0	1	9221.89	0.256185	0.255694	-1.58046	6	0.0298746	-0.000404113
2	0	0	1	1	9222.66	0.240788	0.240353	-1.59071	6	0.0286522	-0.000382332
2	0	0	0	1	9223.43	0.225391	0.224903	-1.60183	6	0.0274216	-0.000360257
2	0	0	0	1	9224.2	0.209994	0.209565	-1.61151	6	0.0261828	-0.000337715
2	0	0	1	1	9224.97	0.194597	0.194143	-1.6223	6	0.024936	-0.000314958
2	0	0	0	1	9225.74	0.1792	0.178703	-1.63344	6	0.0236809	-0.000291901
2	0	0	1	1	9226.51	0.163803	0.163359	-1.64411	6	0.0224176	-0.00026858
2	0	0	1	1	9227.28	0.148406	0.14793	-1.65581	6	0.0211453	-0.000244945
2	0	0	0	1	9228.05	0.133009	0.132518	-1.66667	6	0.0198645	-0.000220864
2	0	0	1	1	9228.82	0.117612	0.117148	-1.67796	6	0.0185754	-0.000196569
2	0	0	0	1	9229.59	0.102215	0.101777	-1.68944	6	0.0172774	-0.000171945
2	0	0	0	1	9230.36	0.0868175	0.0863248	-1.70007	6	0.0159705	-0.000146758
2	0	0	1	1	9231.13	0.0714204	0.0709855	-1.71159	6	0.0146557	-0.000121498
2	0	0	0	1	9231.9	0.0560233	0.0555518	-1.72226	6	0.0133322	-9.56749e-05
2	0	0	0	1	9232.67	0.0406258	0.0401984	-1.73255	6	0.0120006	-6.96455e-05
2	0	0	1	1	9233.44	0.0252292	0.0246864	-1.74387	6	0.0106603	-4.305e-05
2	0	0	0	1	9234.21	0.00983208	0.00937366	-1.75426	6	0.00931204	-1.64438e-05
2	0	0	1	1	9234.7	-0.000131913	-0.000211421	-1.76129	6	0.00846004	3.72373e-07