File: Input_data/[1] JJ1-53 1st SC total meas_04_CP.mpt
EC-Lab ASCII FILE
Nb header lines : 52

Chronopotentiometry

Run on channel : 1 (SN 31418)
User :
CE vs. WE compliance from -10 V to 10 V
Electrode connection : standard
Ewe ctrl range : min = -10.00 V, max = 10.00 V
Safety Limits :
	Do not start on E overload
Acquisition started on : 01/25/2023 15:21:28
Technique started on : 01/25/2023 15:44:30
Saved on :
	File : [1] JJ1-53 1st SC total meas_04_CP.mpr
	Directory : C:\Users\Potentiostat\Documents\EC-Lab\Data\Supercapacitor until 2021 02\(230125) SC JJ1-53 54 lower CB better viscosity\
	Host : 127.0.0.1
Device : SP-150 (SN 1275)
Address : USB
EC-Lab for windows v11.16 (software)
Internet server v11.16 (firmware)
Command interpretor v11.16 (firmware)
Electrode material : Au/Pd
Initial state :
Electrolyte : NaCl (0.2M)
Comments : Fe(CN)63-/Fe(CN)64- 5.10-3 M
Reference electrode : SCE Saturated Calomel Electrode (0.241 V)
Electrode surface area : 0.001 cm²
Characteristic mass : 0.001 g
Equivalent Weight : 0.000 g/eq.
Density : 0.000 g/cm3
Cycle Definition : Charge/Discharge alternance
Ns                  0                   1
Is                  2.000               -2.000
unit Is             mA                  mA
vs.                 <None>              <None>
ts (h:m:s)          24:00:0.0000        24:00:0.0000
EM (V)              0.800               0.000
dQM                 48.000              48.000
unit dQM            mA.h                mA.h
record              Ewe                 Ewe
dEs (mV)            1.00                1.00
dts (s)             1.0000              1.0000
E range min (V)     -10.000             -10.000
E range max (V)     10.000              10.000
I Range             10 mA               10 mA
Bandwidth           5                   5
goto Ns'            0                   0
nc cycles           0                   5

mode	ox/red	error	control changes	Ns changes	counter inc.	Ns	time/s	control/mA	Ewe/V	I/mA	dQ/C	(Q-Qo)/C	half cycle	Q charge/discharge/mA.h	Energy charge/W.h	Energy discharge/W.h	Capacitance charge/µF	Capacitance discharge/µF	Q discharge/mA.h	Q charge/mA.h	Capacity/mA.h	Efficiency/%	cycle number	P/W
1	1	0	0	0	0	0	1382.48	2	0.280987	1.97779	0.0000000E+000	0.0000000E+000	0	0.000000000000000E+000	0.000000000000000E+000	0.000000000000000E+000	0.000000000000000E+000	0.000000000000000E+000	0.000000000000000E+000	0.000000000000000E+000	0.000000000000000E+000	0	0.000000000000000E+000	0.000555734
1	1	0	0	0	0	0	1382.53	2	0.317201	1.99971	9.23587e-05	9.23587e-05	0	2.56552e-05	7.89323e-09	0.000000000000000E+000	2846.69	0.000000000000000E+000	0.000000000000000E+000	2.56552e-05	2.56552e-05	0	0.000000000000000E+000	0.000634309
1	1	0	0	0	0	0	1382.68	2	0.348136	1.99882	0.000386627	0.000386627	0	0.000107396	3.52651e-08	0.000000000000000E+000	6100.18	0.000000000000000E+000	0.000000000000000E+000	0.000107396	0.000107396	0	0.000000000000000E+000	0.00069586
1	1	0	0	0	0	0	1382.93	2	0.378556	1.99933	0.000885607	0.000885607	0	0.000246002	8.58425e-08	0.000000000000000E+000	9441.5	0.000000000000000E+000	0.000000000000000E+000	0.000246002	0.000246002	0	0.000000000000000E+000	0.000756856
1	1	0	0	0	0	0	1383.28	2	0.408823	1.99901	0.00158929	0.00158929	0	0.00044147	1.63063e-07	0.000000000000000E+000	12810	0.000000000000000E+000	0.000000000000000E+000	0.00044147	0.00044147	0	0.000000000000000E+000	0.000817239
1	1	0	0	0	0	0	1383.73	2	0.438975	1.99945	0.00249569	0.00249569	0	0.000693247	2.70077e-07	0.000000000000000E+000	16182.8	0.000000000000000E+000	0.000000000000000E+000	0.000693247	0.000693247	0	0.000000000000000E+000	0.00087771
1	1	0	0	0	0	0	1384.3	2	0.469433	1.99818	0.00363199	0.00363199	0	0.00100889	4.13771e-07	0.000000000000000E+000	19666.8	0.000000000000000E+000	0.000000000000000E+000	0.00100889	0.00100889	0	0.000000000000000E+000	0.000938011
1	1	0	0	0	0	0	1384.97	2	0.499547	1.99939	0.0049678	0.0049678	0	0.00137994	5.93893e-07	0.000000000000000E+000	23128.5	0.000000000000000E+000	0.000000000000000E+000	0.00137994	0.00137994	0	0.000000000000000E+000	0.00099879
1	1	0	0	0	0	0	1385.76	2	0.529834	1.99913	0.00655311	0.00655311	0	0.00182031	8.20943e-07	0.000000000000000E+000	26739	0.000000000000000E+000	0.000000000000000E+000	0.00182031	0.00182031	0	0.000000000000000E+000	0.00105921
1	1	0	0	0	0	0	1386.68	2	0.560234	1.99945	0.00838873	0.00838873	0	0.0023302	1.09931e-06	0.000000000000000E+000	30451.6	0.000000000000000E+000	0.000000000000000E+000	0.0023302	0.0023302	0	0.000000000000000E+000	0.00112016
1	1	0	0	0	0	0	1387.73	2	0.590425	1.99939	0.0104902	0.0104902	0	0.00291395	1.43568e-06	0.000000000000000E+000	34318.9	0.000000000000000E+000	0.000000000000000E+000	0.00291395	0.00291395	0	0.000000000000000E+000	0.00118049
1	1	0	0	0	0	0	1388.92	2	0.620558	1.99907	0.0128724	0.0128724	0	0.00357567	1.83692e-06	0.000000000000000E+000	38333.4	0.000000000000000E+000	0.000000000000000E+000	0.00357567	0.00357567	0	0.000000000000000E+000	0.00124054
1	1	0	0	0	0	0	1390.29	2	0.650577	1.99958	0.0156009	0.0156009	0	0.00433358	2.31927e-06	0.000000000000000E+000	42646.2	0.000000000000000E+000	0.000000000000000E+000	0.00433358	0.00433358	0	0.000000000000000E+000	0.00130088
1	1	0	0	0	0	0	1391.84	2	0.680672	1.99907	0.0187092	0.0187092	0	0.00519699	2.89474e-06	0.000000000000000E+000	47255.4	0.000000000000000E+000	0.000000000000000E+000	0.00519699	0.00519699	0	0.000000000000000E+000	0.00136071
1	1	0	0	0	0	0	1393.66	2	0.711168	1.99869	0.0223456	0.0223456	0	0.00620711	3.59858e-06	0.000000000000000E+000	52403.8	0.000000000000000E+000	0.000000000000000E+000	0.00620711	0.00620711	0	0.000000000000000E+000	0.0014214
1	1	0	0	0	0	0	1395.73	2	0.741168	1.99945	0.026475	0.026475	0	0.00735418	4.43251e-06	0.000000000000000E+000	58007	0.000000000000000E+000	0.000000000000000E+000	0.00735418	0.00735418	0	0.000000000000000E+000	0.00148193
1	1	0	0	0	0	0	1398.13	2	0.771378	1.99875	0.0312826	0.0312826	0	0.00868961	5.44364e-06	0.000000000000000E+000	64285.3	0.000000000000000E+000	0.000000000000000E+000	0.00868961	0.00868961	0	0.000000000000000E+000	0.00154179
1	0	0	1	1	0	1	1400.77	-2	0.686482	-1.96109	7.53288e-09	0.0365507	1	2.06961e-09	6.59467e-06	0.000000000000000E+000	70959.4	0.000000000000000E+000	0.000000000000000E+000	2.06961e-09	2.06961e-09	0	0.000000000000000E+000	-0.00134625
1	0	0	1	0	0	1	1400.8	-2	0.646452	-2.00167	-7.2464e-05	0.0364782	1	-2.0129e-05	6.59467e-06	-1.31832e-08	70959.4	2096.04	2.0129e-05	0.000000000000000E+000	2.0129e-05	0	0.000000000000000E+000	-0.00129399
1	0	0	1	0	0	1	1401.04	-2	0.61609	-2.00148	-0.000540131	0.0360106	1	-0.000150036	6.59467e-06	-9.47332e-08	70959.4	8317.73	0.000150036	0.000000000000000E+000	0.000150036	0	0.000000000000000E+000	-0.00123309
1	0	0	1	0	0	1	1401.54	-2	0.585498	-2.0025	-0.00155596	0.0349948	1	-0.00043221	6.59467e-06	-2.63785e-07	70959.4	16287.7	0.00043221	0.000000000000000E+000	0.00043221	0	0.000000000000000E+000	-0.00117246
1	0	0	1	0	0	1	1402.23	-2	0.55504	-2.00237	-0.00294016	0.0336105	1	-0.000816712	6.59467e-06	-4.82649e-07	70959.4	23337	0.000816712	0.000000000000000E+000	0.000816712	0	0.000000000000000E+000	-0.0011114
1	0	0	1	0	0	1	1403.05	-2	0.52483	-2.00199	-0.00457581	0.0319749	1	-0.00127106	6.59467e-06	-7.27595e-07	70959.4	29295	0.00127106	0.000000000000000E+000	0.00127106	0	0.000000000000000E+000	-0.00105071
1	0	0	1	0	0	1	1403.96	-2	0.494754	-2.00225	-0.00638721	0.0301635	1	-0.00177423	6.59467e-06	-9.8374e-07	70959.4	34289.5	0.00177423	0.000000000000000E+000	0.00177423	0	0.000000000000000E+000	-0.00099062
1	0	0	1	0	0	1	1404.94	-2	0.464602	-2.00148	-0.00835478	0.0281959	1	-0.00232077	6.59467e-06	-1.24553e-06	70959.4	38603.5	0.00232077	0.000000000000000E+000	0.00232077	0	0.000000000000000E+000	-0.000929892
1	0	0	1	0	0	1	1405.97	-2	0.434545	-2.00212	-0.0104164	0.0261343	1	-0.00289346	6.59467e-06	-1.50262e-06	70959.4	42260.3	0.00289346	0.000000000000000E+000	0.00289346	0	0.000000000000000E+000	-0.00087001
1	0	0	1	0	0	1	1407.04	-2	0.404526	-2.0025	-0.0125598	0.0239909	1	-0.00348882	6.59467e-06	-1.75206e-06	70959.4	45423.9	0.00348882	0.000000000000000E+000	0.00348882	0	0.000000000000000E+000	-0.000810064
1	0	0	1	0	0	1	1408.14	-2	0.374546	-2.00193	-0.0147543	0.0217964	1	-0.00409843	6.59467e-06	-1.98919e-06	70959.4	48141	0.00409843	0.000000000000000E+000	0.00409843	0	0.000000000000000E+000	-0.000749813
1	0	0	1	0	0	1	1409.26	-2	0.344527	-2.00218	-0.0170022	0.0195485	1	-0.00472283	6.59467e-06	-2.21335e-06	70959.4	50526.5	0.00472283	0.000000000000000E+000	0.00472283	0	0.000000000000000E+000	-0.000689806
1	0	0	1	0	0	1	1410.41	-2	0.314298	-2.00231	-0.0193149	0.0172358	1	-0.00536526	6.59467e-06	-2.42458e-06	70959.4	52668	0.00536526	0.000000000000000E+000	0.00536526	0	0.000000000000000E+000	-0.000629322
1	0	0	1	0	0	1	1411.58	-2	0.284108	-2.00205	-0.0216473	0.0149034	1	-0.00601314	6.59467e-06	-2.61805e-06	70959.4	54538.1	0.00601314	0.000000000000000E+000	0.00601314	0	0.000000000000000E+000	-0.000568799
1	0	0	1	0	0	1	1412.77	-2	0.253783	-2.00199	-0.0240365	0.0125142	1	-0.0066768	6.59467e-06	-2.79619e-06	70959.4	56259.3	0.0066768	0.000000000000000E+000	0.0066768	0	0.000000000000000E+000	-0.000508072
1	0	0	1	0	0	1	1413.98	-2	0.223669	-2.00244	-0.0264485	0.0101022	1	-0.0073468	6.59467e-06	-2.95578e-06	70959.4	57828.7	0.0073468	0.000000000000000E+000	0.0073468	0	0.000000000000000E+000	-0.000447883
1	0	0	1	0	0	1	1415.2	-2	0.193421	-2.00256	-0.0288977	0.00765297	1	-0.00802715	6.59467e-06	-3.0973e-06	70959.4	59264.4	0.00802715	0.000000000000000E+000	0.00802715	0	0.000000000000000E+000	-0.000387338
1	0	0	1	0	0	1	1416.45	-2	0.162849	-2.00212	-0.0314007	0.00515005	1	-0.0087224	6.59467e-06	-3.22079e-06	70959.4	60598.1	0.0087224	0.000000000000000E+000	0.0087224	0	0.000000000000000E+000	-0.000326042
1	0	0	1	0	0	1	1417.7	-2	0.13262	-2.00269	-0.033898	0.00265274	1	-0.0094161	6.59467e-06	-3.32288e-06	70959.4	61811.6	0.0094161	0.000000000000000E+000	0.0094161	0	0.000000000000000E+000	-0.000265596
1	0	0	1	0	0	1	1418.94	-2	0.102353	-2.0018	-0.0363865	0.000164245	1	-0.0101074	6.59467e-06	-3.40371e-06	70959.4	62878.9	0.0101074	0.000000000000000E+000	0.0101074	0	0.000000000000000E+000	-0.00020489
1	0	0	1	0	0	1	1420.2	-2	0.0718756	-2.00212	-0.0389162	-0.00236551	1	-0.0108101	6.59467e-06	-3.46453e-06	70959.4	63885.9	0.0108101	0.000000000000000E+000	0.0108101	0	0.000000000000000E+000	-0.000143903
1	0	0	1	0	0	1	1421.46	-2	0.041876	-2.0018	-0.0414287	-0.00487796	1	-0.011508	6.59467e-06	-3.50379e-06	70959.4	64818.2	0.011508	0.000000000000000E+000	0.011508	0	0.000000000000000E+000	-8.38273e-05
1	0	0	1	0	0	1	1422.74	-2	0.0117235	-2.00282	-0.0439888	-0.00743805	1	-0.0122191	6.59467e-06	-3.52242e-06	70959.4	65723.1	0.0122191	0.000000000000000E+000	0.0122191	0	0.000000000000000E+000	-2.34801e-05
1	1	0	0	0	1	0	1423.25	2	0.146044	1.99901	1.11857e-05	-0.00844067	2	3.10725e-06	4.31192e-10	-2.69557e-13	490.735	0.000000000000000E+000	0.000000000000000E+000	3.10725e-06	3.10725e-06	0	1	0.000291943
1	1	0	0	0	1	0	1423.31	2	0.178125	1.99939	0.000131931	-0.00831992	2	3.66475e-05	6.03818e-09	-2.69557e-13	2403.58	0.000000000000000E+000	0.000000000000000E+000	3.66475e-05	3.66475e-05	0	1	0.000356142
1	1	0	0	0	1	0	1423.49	2	0.208755	1.99913	0.000494976	-0.00795688	2	0.000137493	2.57859e-08	-2.69557e-13	5787.75	0.000000000000000E+000	0.000000000000000E+000	0.000137493	0.000137493	0	1	0.000417329
1	1	0	0	0	1	0	1423.8	2	0.23906	2.00009	0.00110834	-0.00734352	2	0.000307871	6.41667e-08	-2.69557e-13	9568.9	0.000000000000000E+000	0.000000000000000E+000	0.000307871	0.000307871	0	1	0.000478142
1	1	0	0	0	1	0	1424.21	2	0.269881	1.99945	0.0019356	-0.00651626	2	0.000537666	1.22903e-07	-2.69557e-13	13198.9	0.000000000000000E+000	0.000000000000000E+000	0.000537666	0.000537666	0	1	0.000539614
1	1	0	0	0	1	0	1424.7	2	0.30011	1.99952	0.00291281	-0.00553905	2	0.000809113	2.00523e-07	-2.69557e-13	16468	0.000000000000000E+000	0.000000000000000E+000	0.000809113	0.000809113	0	1	0.000600075
1	1	0	0	0	1	0	1425.27	2	0.330377	1.99875	0.00404116	-0.00441069	2	0.00112255	2.99592e-07	-2.69557e-13	19508.9	0.000000000000000E+000	0.000000000000000E+000	0.00112255	0.00112255	0	1	0.000660341
1	1	0	0	0	1	0	1425.9	2	0.360453	1.99933	0.00530506	-0.00314679	2	0.00147363	4.2114e-07	-2.69557e-13	22363.4	0.000000000000000E+000	0.000000000000000E+000	0.00147363	0.00147363	0	1	0.000720663
1	1	0	0	0	1	0	1426.6	2	0.390682	1.99856	0.00671447	-0.00173738	2	0.00186513	5.68495e-07	-2.69557e-13	25105.6	0.000000000000000E+000	0.000000000000000E+000	0.00186513	0.00186513	0	1	0.000780801
1	1	0	0	0	1	0	1427.37	2	0.420529	1.99971	0.00824186	-0.000209999	2	0.0022894	7.40916e-07	-2.69557e-13	27722.7	0.000000000000000E+000	0.000000000000000E+000	0.0022894	0.0022894	0	1	0.000840934
1	1	0	0	0	1	0	1428.22	2	0.45112	1.99831	0.00995116	0.0014993	2	0.00276421	9.48228e-07	-2.69557e-13	30349.3	0.000000000000000E+000	0.000000000000000E+000	0.00276421	0.00276421	0	1	0.000901476
1	1	0	0	0	1	0	1429.16	2	0.481674	1.99939	0.0118256	0.00337373	2	0.00328488	1.19147e-06	-2.69557e-13	32991.7	0.000000000000000E+000	0.000000000000000E+000	0.00328488	0.00328488	0	1	0.000963053
1	1	0	0	0	1	0	1430.17	2	0.511807	1.99869	0.0138439	0.00539209	2	0.00384554	1.47039e-06	-2.69557e-13	35627.5	0.000000000000000E+000	0.000000000000000E+000	0.00384554	0.00384554	0	1	0.00102294
1	1	0	0	0	1	0	1431.28	2	0.542074	1.99964	0.0160598	0.00760796	2	0.00446106	1.79522e-06	-2.69557e-13	38343.4	0.000000000000000E+000	0.000000000000000E+000	0.00446106	0.00446106	0	1	0.00108395
1	1	0	0	0	1	0	1432.47	2	0.572016	1.99971	0.0184464	0.00999455	2	0.005124	2.16499e-06	-2.69557e-13	41103.1	0.000000000000000E+000	0.000000000000000E+000	0.005124	0.005124	0	1	0.00114387
1	1	0	0	0	1	0	1433.8	2	0.602264	1.99894	0.0210997	0.0126479	2	0.00586104	2.59829e-06	-2.69557e-13	44046.6	0.000000000000000E+000	0.000000000000000E+000	0.00586104	0.00586104	0	1	0.00120389
1	1	0	0	0	1	0	1435.26	2	0.632722	1.99894	0.0240166	0.0155647	2	0.00667127	3.09921e-06	-2.69557e-13	47138.5	0.000000000000000E+000	0.000000000000000E+000	0.00667127	0.00667127	0	1	0.00126478
1	1	0	0	0	1	0	1436.85	2	0.662913	1.99882	0.0272029	0.018751	2	0.00755636	3.67324e-06	-2.69557e-13	50405.5	0.000000000000000E+000	0.000000000000000E+000	0.00755636	0.00755636	0	1	0.00132504
1	1	0	0	0	1	0	1438.6	2	0.69297	1.99958	0.0306967	0.0222448	2	0.00852686	4.33195e-06	-2.69557e-13	53878.7	0.000000000000000E+000	0.000000000000000E+000	0.00852686	0.00852686	0	1	0.00138565
1	1	0	0	0	1	0	1440.56	2	0.723332	1.99875	0.0346087	0.0261568	2	0.00961353	5.10235e-06	-2.69557e-13	57671.5	0.000000000000000E+000	0.000000000000000E+000	0.00961353	0.00961353	0	1	0.00144576
1	1	0	0	0	1	0	1442.74	2	0.753561	1.99894	0.0389842	0.0305323	2	0.0108289	6.00083e-06	-2.69557e-13	61847.4	0.000000000000000E+000	0.000000000000000E+000	0.0108289	0.0108289	0	1	0.00150633
1	1	0	0	0	1	0	1445.21	2	0.783599	1.99971	0.043921	0.0354691	2	0.0122003	7.05595e-06	-2.69557e-13	66510	0.000000000000000E+000	0.000000000000000E+000	0.0122003	0.0122003	0	1	0.00156697
1	0	0	1	0	1	1	1446.72	-2	0.664078	-2.00212	-9.60141e-06	0.0384519	3	-2.66669e-06	7.71461e-06	-1.78629e-09	69325.4	581.055	2.66669e-06	0.000000000000000E+000	2.66669e-06	0	1	-0.00132956
1	0	0	1	0	1	1	1446.82	-2	0.632608	-2.00142	-0.000208192	0.0382533	3	-5.7831e-05	7.71461e-06	-3.72349e-08	69325.4	4335.93	5.7831e-05	0.000000000000000E+000	5.7831e-05	0	1	-0.00126611
1	0	0	1	0	1	1	1447.17	-2	0.602226	-2.00205	-0.000918486	0.037543	3	-0.000255135	7.71461e-06	-1.58565e-07	69325.4	11715.5	0.000255135	0.000000000000000E+000	0.000255135	0	1	-0.00120569
1	0	0	1	0	1	1	1447.75	-2	0.572074	-2.00212	-0.00208362	0.0363779	3	-0.000578784	7.71461e-06	-3.4819e-07	69325.4	19194.6	0.000578784	0.000000000000000E+000	0.000578784	0	1	-0.00114536
1	0	0	1	0	1	1	1448.49	-2	0.541902	-2.00295	-0.00356467	0.0348968	3	-0.000990185	7.71461e-06	-5.76978e-07	69325.4	25696.1	0.000990185	0.000000000000000E+000	0.000990185	0	1	-0.0010854
1	0	0	1	0	1	1	1449.34	-2	0.511788	-2.00129	-0.00526913	0.0331924	3	-0.00146365	7.71461e-06	-8.26047e-07	69325.4	31208.1	0.00146365	0.000000000000000E+000	0.00146365	0	1	-0.00102424
1	0	0	1	0	1	1	1450.27	-2	0.481826	-2.00225	-0.00712695	0.0313346	3	-0.00197971	7.71461e-06	-1.08206e-06	69325.4	35849.9	0.00197971	0.000000000000000E+000	0.00197971	0	1	-0.000964735
1	0	0	1	0	1	1	1451.29	-2	0.451445	-2.00142	-0.00915654	0.029305	3	-0.00254348	7.71461e-06	-1.34476e-06	69325.4	39953.2	0.00254348	0.000000000000000E+000	0.00254348	0	1	-0.00090353
1	0	0	1	0	1	1	1452.34	-2	0.421312	-2.00244	-0.0112706	0.0271909	3	-0.00313073	7.71461e-06	-1.60062e-06	69325.4	43463	0.00313073	0.000000000000000E+000	0.00313073	0	1	-0.00084365
1	0	0	1	0	1	1	1453.44	-2	0.391025	-2.00193	-0.0134708	0.0249907	3	-0.00374188	7.71461e-06	-1.84844e-06	69325.4	46514.9	0.00374188	0.000000000000000E+000	0.00374188	0	1	-0.000782804
1	0	0	1	0	1	1	1454.55	-2	0.360988	-2.00174	-0.0157014	0.0227601	3	-0.0043615	7.71461e-06	-2.08106e-06	69325.4	49122.3	0.0043615	0.000000000000000E+000	0.0043615	0	1	-0.000722602
1	0	0	1	0	1	1	1455.7	-2	0.331007	-2.00218	-0.0179884	0.0204731	3	-0.00499678	7.71461e-06	-2.30048e-06	69325.4	51451.4	0.00499678	0.000000000000000E+000	0.00499678	0	1	-0.000662736
1	0	0	1	0	1	1	1456.87	-2	0.300568	-2.0025	-0.0203427	0.0181188	3	-0.00565075	7.71461e-06	-2.50659e-06	69325.4	53525.2	0.00565075	0.000000000000000E+000	0.00565075	0	1	-0.000601888
1	0	0	1	0	1	1	1458.05	-2	0.270588	-2.00218	-0.0227062	0.0157553	3	-0.00630728	7.71461e-06	-2.69367e-06	69325.4	55375.7	0.00630728	0.000000000000000E+000	0.00630728	0	1	-0.000541766
1	0	0	1	0	1	1	1459.25	-2	0.240588	-2.00186	-0.0250981	0.0133634	3	-0.0069717	7.71461e-06	-2.86305e-06	69325.4	57036.2	0.0069717	0.000000000000000E+000	0.0069717	0	1	-0.000481624
1	0	0	1	0	1	1	1460.46	-2	0.210435	-2.00237	-0.0275221	0.0109394	3	-0.00764502	7.71461e-06	-3.01451e-06	69325.4	58533.8	0.00764502	0.000000000000000E+000	0.00764502	0	1	-0.00042137
1	0	0	1	0	1	1	1461.69	-2	0.180207	-2.00237	-0.0299792	0.00848226	3	-0.00832757	7.71461e-06	-3.14751e-06	69325.4	59908.2	0.00832757	0.000000000000000E+000	0.00832757	0	1	-0.000360841
1	0	0	1	0	1	1	1462.91	-2	0.150341	-2.00186	-0.0324292	0.00603226	3	-0.00900812	7.71461e-06	-3.25967e-06	69325.4	61154.3	0.00900812	0.000000000000000E+000	0.00900812	0	1	-0.000300961
1	0	0	1	0	1	1	1464.13	-2	0.120379	-2.00225	-0.0348784	0.00358308	3	-0.00968845	7.71461e-06	-3.35143e-06	69325.4	62255.4	0.00968845	0.000000000000000E+000	0.00968845	0	1	-0.000241029
1	0	0	1	0	1	1	1465.35	-2	0.0906087	-2.00205	-0.0373128	0.0011487	3	-0.0103647	7.71461e-06	-3.42242e-06	69325.4	63240.1	0.0103647	0.000000000000000E+000	0.0103647	0	1	-0.000181404
1	0	0	1	0	1	1	1466.58	-2	0.060609	-2.00244	-0.0397796	-0.0013181	3	-0.0110499	7.71461e-06	-3.47385e-06	69325.4	64158.8	0.0110499	0.000000000000000E+000	0.0110499	0	1	-0.000121366
1	0	0	1	0	1	1	1467.84	-2	0.030533	-2.00148	-0.042292	-0.00383053	3	-0.0117478	7.71461e-06	-3.50523e-06	69325.4	65055.3	0.0117478	0.000000000000000E+000	0.0117478	0	1	-6.11112e-05
1	0	0	1	0	1	1	1469.11	-2	0.000456936	-2.0025	-0.0448385	-0.00637704	3	-0.0124552	7.71461e-06	-3.51578e-06	69325.4	65922.6	0.0124552	0.000000000000000E+000	0.0124552	0	1	-9.15014e-07
1	1	0	0	0	0	0	1469.15	2	0.158285	1.99933	3.35755e-05	-0.0063875	4	9.32642e-06	1.38692e-09	-2.867e-13	953.748	0.000000000000000E+000	0.000000000000000E+000	9.32642e-06	9.32642e-06	0	2	0.000316462
1	1	0	0	0	0	0	1469.24	2	0.189144	1.99958	0.000227095	-0.00619398	4	6.30818e-05	1.09233e-08	-2.867e-13	3437.23	0.000000000000000E+000	0.000000000000000E+000	6.30818e-05	6.30818e-05	0	2	0.000378208
1	1	0	0	0	0	0	1469.47	2	0.21985	1.99958	0.000685709	-0.00573537	4	0.000190475	3.72208e-08	-2.867e-13	7085.48	0.000000000000000E+000	0.000000000000000E+000	0.000190475	0.000190475	0	2	0.000439607
1	1	0	0	0	0	0	1469.82	2	0.250461	1.9992	0.00137502	-0.00504605	4	0.000381951	8.24822e-08	-2.867e-13	10794	0.000000000000000E+000	0.000000000000000E+000	0.000381951	0.000381951	0	2	0.00050072
1	1	0	0	0	0	0	1470.26	2	0.280785	1.99926	0.00224787	-0.00417321	4	0.000624408	1.47121e-07	-2.867e-13	14253	0.000000000000000E+000	0.000000000000000E+000	0.000624408	0.000624408	0	2	0.000561362
1	1	0	0	0	0	0	1470.77	2	0.311128	1.99933	0.00328385	-0.00313723	4	0.000912181	2.32549e-07	-2.867e-13	17462.1	0.000000000000000E+000	0.000000000000000E+000	0.000912181	0.000912181	0	2	0.000622046
1	1	0	0	0	0	0	1471.36	2	0.341319	1.9992	0.00445577	-0.00196531	4	0.00123771	3.39022e-07	-2.867e-13	20416.2	0.000000000000000E+000	0.000000000000000E+000	0.00123771	0.00123771	0	2	0.000682364
1	1	0	0	0	0	0	1472.03	2	0.371872	1.99977	0.00579043	-0.000630648	4	0.00160845	4.71529e-07	-2.867e-13	23273.4	0.000000000000000E+000	0.000000000000000E+000	0.00160845	0.00160845	0	2	0.000743659
1	1	0	0	0	0	0	1472.77	2	0.402407	1.99862	0.00726465	0.000843572	4	0.00201796	6.30398e-07	-2.867e-13	26007	0.000000000000000E+000	0.000000000000000E+000	0.00201796	0.00201796	0	2	0.00080426
1	1	0	0	0	0	0	1473.56	2	0.432311	1.99837	0.00885322	0.00243214	4	0.00245923	8.14907e-07	-2.867e-13	28629.1	0.000000000000000E+000	0.000000000000000E+000	0.00245923	0.00245923	0	2	0.000863917
1	1	0	0	0	0	0	1474.45	2	0.462807	1.99856	0.0106285	0.00420745	4	0.00295237	1.03602e-06	-2.867e-13	31284.8	0.000000000000000E+000	0.000000000000000E+000	0.00295237	0.00295237	0	2	0.000924948
1	1	0	0	0	0	0	1475.42	2	0.493246	1.99926	0.0125637	0.00614266	4	0.00348993	1.29344e-06	-2.867e-13	33940.1	0.000000000000000E+000	0.000000000000000E+000	0.00348993	0.00348993	0	2	0.000986127
1	1	0	0	0	0	0	1476.46	2	0.523246	1.99901	0.0146477	0.00822663	4	0.00406881	1.58812e-06	-2.867e-13	36603.4	0.000000000000000E+000	0.000000000000000E+000	0.00406881	0.00406881	0	2	0.00104597
1	1	0	0	0	0	0	1477.59	2	0.553226	1.99939	0.016918	0.0104969	4	0.00469945	1.92803e-06	-2.867e-13	39330.1	0.000000000000000E+000	0.000000000000000E+000	0.00469945	0.00469945	0	2	0.00110611
1	1	0	0	0	0	0	1478.84	2	0.583378	1.99952	0.0194106	0.0129895	4	0.00539183	2.32201e-06	-2.867e-13	42168.9	0.000000000000000E+000	0.000000000000000E+000	0.00539183	0.00539183	0	2	0.00116647
1	1	0	0	0	0	0	1480.22	2	0.613798	1.99831	0.0221619	0.0157408	4	0.00615607	2.78002e-06	-2.867e-13	45161.4	0.000000000000000E+000	0.000000000000000E+000	0.00615607	0.00615607	0	2	0.00122656
1	1	0	0	0	0	0	1481.71	2	0.643874	1.99856	0.0251454	0.0187243	4	0.00698484	3.30174e-06	-2.867e-13	48282.1	0.000000000000000E+000	0.000000000000000E+000	0.00698484	0.00698484	0	2	0.00128682
1	1	0	0	0	0	0	1483.33	2	0.673759	1.99933	0.0283929	0.0219718	4	0.00788691	3.89668e-06	-2.867e-13	51559	0.000000000000000E+000	0.000000000000000E+000	0.00788691	0.00788691	0	2	0.00134706
1	1	0	0	0	0	0	1485.13	2	0.703893	1.99933	0.0319841	0.0255631	4	0.00888448	4.58458e-06	-2.867e-13	55067.2	0.000000000000000E+000	0.000000000000000E+000	0.00888448	0.00888448	0	2	0.00140731
1	1	0	0	0	0	0	1487.11	2	0.733625	1.99945	0.0359337	0.0295126	4	0.00998159	5.37396e-06	-2.867e-13	58854.4	0.000000000000000E+000	0.000000000000000E+000	0.00998159	0.00998159	0	2	0.00146685
1	1	0	0	0	0	0	1489.33	2	0.763777	1.99983	0.0403814	0.0339603	4	0.0112171	6.29997e-06	-2.867e-13	63026.5	0.000000000000000E+000	0.000000000000000E+000	0.0112171	0.0112171	0	2	0.00152743
1	1	0	0	0	0	0	1491.85	2	0.793739	2.00003	0.0454274	0.0390063	4	0.0126187	7.39266e-06	-2.867e-13	67734.6	0.000000000000000E+000	0.000000000000000E+000	0.0126187	0.0126187	0	2	0.0015875
1	0	0	1	0	0	1	1492.43	-2	0.654606	-2.00193	-3.0421e-05	0.0401002	5	-8.45123e-06	7.64171e-06	-5.59243e-09	68813.5	1155.62	8.45123e-06	0.000000000000000E+000	8.45123e-06	0	2	-0.00131047
1	0	0	1	0	0	1	1492.6	-2	0.623404	-2.00225	-0.000356329	0.0397743	5	-9.8981e-05	7.64171e-06	-6.30261e-08	68813.5	6192.6	9.8981e-05	0.000000000000000E+000	9.8981e-05	0	2	-0.00124821
1	0	0	1	0	0	1	1493.02	-2	0.593137	-2.00193	-0.00121434	0.0389163	5	-0.000337318	7.64171e-06	-2.07532e-07	68813.5	13829.2	0.000337318	0.000000000000000E+000	0.000337318	0	2	-0.00118742
1	0	0	1	0	0	1	1493.66	-2	0.562869	-2.00212	-0.00248837	0.0376423	5	-0.000691215	7.64171e-06	-4.11658e-07	68813.5	21074.1	0.000691215	0.000000000000000E+000	0.000691215	0	2	-0.00112693
1	0	0	1	0	0	1	1494.42	-2	0.532946	-2.00186	-0.00401863	0.036112	5	-0.00111629	7.64171e-06	-6.44169e-07	68813.5	27152.8	0.00111629	0.000000000000000E+000	0.00111629	0	2	-0.00106689
1	0	0	1	0	0	1	1495.29	-2	0.502985	-2.00161	-0.00575788	0.0343727	5	-0.00159941	7.64171e-06	-8.94021e-07	68813.5	32354.5	0.00159941	0.000000000000000E+000	0.00159941	0	2	-0.00100678
1	0	0	1	0	0	1	1496.25	-2	0.472813	-2.00116	-0.00767214	0.0324585	5	-0.00213115	7.64171e-06	-1.15304e-06	68813.5	36861.6	0.00213115	0.000000000000000E+000	0.00213115	0	2	-0.000946176
1	0	0	1	0	0	1	1497.27	-2	0.442527	-2.0018	-0.00971975	0.0304109	5	-0.00269993	7.64171e-06	-1.41294e-06	68813.5	40767.3	0.00269993	0.000000000000000E+000	0.00269993	0	2	-0.000885851
1	0	0	1	0	0	1	1498.35	-2	0.412088	-2.00186	-0.0118719	0.0282587	5	-0.00329775	7.64171e-06	-1.66802e-06	68813.5	44156.6	0.00329775	0.000000000000000E+000	0.00329775	0	2	-0.000824944
1	0	0	1	0	0	1	1499.45	-2	0.382031	-2.00288	-0.0140741	0.0260565	5	-0.00390947	7.64171e-06	-1.91058e-06	68813.5	47083.8	0.00390947	0.000000000000000E+000	0.00390947	0	2	-0.000765164
1	0	0	1	0	0	1	1500.58	-2	0.35186	-2.0025	-0.0163484	0.0237823	5	-0.00454121	7.64171e-06	-2.14202e-06	68813.5	49677.9	0.00454121	0.000000000000000E+000	0.00454121	0	2	-0.000704599
1	0	0	1	0	0	1	1501.73	-2	0.321726	-2.00186	-0.0186538	0.0214768	5	-0.00518163	7.64171e-06	-2.35733e-06	68813.5	51928.6	0.00518163	0.000000000000000E+000	0.00518163	0	2	-0.000644052
1	0	0	1	0	0	1	1502.92	-2	0.291364	-2.00186	-0.0210206	0.01911	5	-0.00583905	7.64171e-06	-2.55851e-06	68813.5	53956.6	0.00583905	0.000000000000000E+000	0.00583905	0	2	-0.000583271
1	0	0	1	0	0	1	1504.11	-2	0.261288	-2.00161	-0.0234061	0.0167245	5	-0.00650171	7.64171e-06	-2.74127e-06	68813.5	55774.1	0.00650171	0.000000000000000E+000	0.00650171	0	2	-0.000522996
1	0	0	1	0	0	1	1505.31	-2	0.231269	-2.00186	-0.0258205	0.0143101	5	-0.00717237	7.64171e-06	-2.90606e-06	68813.5	57420	0.00717237	0.000000000000000E+000	0.00717237	0	2	-0.000462969
1	0	0	1	0	0	1	1506.53	-2	0.201174	-2.00097	-0.0282573	0.0118733	5	-0.00784926	7.64171e-06	-3.05202e-06	68813.5	58897.2	0.00784926	0.000000000000000E+000	0.00784926	0	2	-0.000402543
1	0	0	1	0	0	1	1507.74	-2	0.171442	-2.00225	-0.0306785	0.00945217	5	-0.00852179	7.64171e-06	-3.17695e-06	68813.5	60212.2	0.00852179	0.000000000000000E+000	0.00852179	0	2	-0.000343268
1	0	0	1	0	0	1	1508.97	-2	0.141442	-2.0025	-0.0331284	0.00700223	5	-0.00920233	7.64171e-06	-3.28305e-06	68813.5	61405.1	0.00920233	0.000000000000000E+000	0.00920233	0	2	-0.000283238
1	0	0	1	0	0	1	1510.2	-2	0.11106	-2.00174	-0.0355964	0.00453427	5	-0.00988788	7.64171e-06	-3.36922e-06	68813.5	62462.1	0.00988788	0.000000000000000E+000	0.00988788	0	2	-0.000222314
1	0	0	1	0	0	1	1511.43	-2	0.0808698	-2.00237	-0.0380567	0.0020739	5	-0.0105713	7.64171e-06	-3.43445e-06	68813.5	63419.7	0.0105713	0.000000000000000E+000	0.0105713	0	2	-0.000161931
1	0	0	1	0	0	1	1512.66	-2	0.0509083	-2.00186	-0.0405287	-0.000398091	5	-0.011258	7.64171e-06	-3.47931e-06	68813.5	64327.3	0.011258	0.000000000000000E+000	0.011258	0	2	-0.000101911
1	0	0	1	0	0	1	1513.92	-2	0.020775	-2.0018	-0.0430416	-0.00291096	5	-0.011956	7.64171e-06	-3.50395e-06	68813.5	65197.5	0.011956	0.000000000000000E+000	0.011956	0	2	-4.15873e-05
1	1	0	0	0	1	0	1514.81	2	0.135236	1.99882	3.18953e-06	-0.00469152	6	8.8605e-07	1.15641e-10	-2.85715e-13	264.707	0.000000000000000E+000	0.000000000000000E+000	8.8605e-07	8.8605e-07	0	3	0.000270311
1	1	0	0	0	1	0	1514.85	2	0.169379	1.99952	7.59575e-05	-0.00461875	6	2.10994e-05	3.32893e-09	-2.85715e-13	1643.33	0.000000000000000E+000	0.000000000000000E+000	2.10994e-05	2.10994e-05	0	3	0.000338677
1	1	0	0	0	1	0	1514.99	2	0.200124	1.9992	0.000359836	-0.00433487	6	9.99546e-05	1.81367e-08	-2.85715e-13	4675.05	0.000000000000000E+000	0.000000000000000E+000	9.99546e-05	9.99546e-05	0	3	0.000400087
1	1	0	0	0	1	0	1515.26	2	0.230658	1.99945	0.000902008	-0.0037927	6	0.000250558	5.08317e-08	-2.85715e-13	8390.4	0.000000000000000E+000	0.000000000000000E+000	0.000250558	0.000250558	0	3	0.00046119
1	1	0	0	0	1	0	1515.63	2	0.261021	1.99862	0.0016497	-0.00304501	6	0.000458249	1.02125e-07	-2.85715e-13	11965.8	0.000000000000000E+000	0.000000000000000E+000	0.000458249	0.000458249	0	3	0.000521682
1	1	0	0	0	1	0	1516.1	2	0.291498	1.99837	0.00258291	-0.00211179	6	0.000717476	1.73984e-07	-2.85715e-13	15343	0.000000000000000E+000	0.000000000000000E+000	0.000717476	0.000717476	0	3	0.00058252
1	1	0	0	0	1	0	1516.65	2	0.322108	1.99913	0.00367207	-0.00102264	6	0.00102002	2.67062e-07	-2.85715e-13	18456.7	0.000000000000000E+000	0.000000000000000E+000	0.00102002	0.00102002	0	3	0.000643938
1	1	0	0	0	1	0	1517.27	2	0.352585	1.99933	0.00491476	0.000220058	6	0.00136521	3.83798e-07	-2.85715e-13	21421.4	0.000000000000000E+000	0.000000000000000E+000	0.00136521	0.00136521	0	3	0.000704933
1	1	0	0	0	1	0	1517.94	2	0.382604	1.99901	0.00626781	0.0015731	6	0.00174106	5.22263e-07	-2.85715e-13	24157.9	0.000000000000000E+000	0.000000000000000E+000	0.00174106	0.00174106	0	3	0.000764828
1	1	0	0	0	1	0	1518.7	2	0.412776	1.99933	0.0077748	0.00308009	6	0.00215967	6.89064e-07	-2.85715e-13	26844.5	0.000000000000000E+000	0.000000000000000E+000	0.00215967	0.00215967	0	3	0.000825273
1	1	0	0	0	1	0	1519.53	2	0.44331	1.9999	0.00944613	0.00475142	6	0.00262392	8.88147e-07	-2.85715e-13	29504.6	0.000000000000000E+000	0.000000000000000E+000	0.00262392	0.00262392	0	3	0.000886575
1	1	0	0	0	1	0	1520.44	2	0.473424	1.99939	0.0112582	0.00656348	6	0.00312727	1.11925e-06	-2.85715e-13	32141.3	0.000000000000000E+000	0.000000000000000E+000	0.00312727	0.00312727	0	3	0.000946559
1	1	0	0	0	1	0	1521.42	2	0.503519	1.99926	0.0132234	0.00852867	6	0.00367316	1.38629e-06	-2.85715e-13	34764.8	0.000000000000000E+000	0.000000000000000E+000	0.00367316	0.00367316	0	3	0.00100667
1	1	0	0	0	1	0	1522.51	2	0.533729	1.99977	0.0153949	0.0107002	6	0.00427635	1.69955e-06	-2.85715e-13	37495.7	0.000000000000000E+000	0.000000000000000E+000	0.00427635	0.00427635	0	3	0.00106734
1	1	0	0	0	1	0	1523.69	2	0.56392	1.99824	0.0177575	0.0130628	6	0.00493264	2.06024e-06	-2.85715e-13	40287.7	0.000000000000000E+000	0.000000000000000E+000	0.00493264	0.00493264	0	3	0.00112685
1	1	0	0	0	1	0	1524.97	2	0.593958	1.99977	0.0203197	0.015625	6	0.00564436	2.47281e-06	-2.85715e-13	43159.4	0.000000000000000E+000	0.000000000000000E+000	0.00564436	0.00564436	0	3	0.00118778
1	1	0	0	0	1	0	1526.39	2	0.624377	1.99862	0.023157	0.0184623	6	0.00643249	2.95349e-06	-2.85715e-13	46200.7	0.000000000000000E+000	0.000000000000000E+000	0.00643249	0.00643249	0	3	0.0012479
1	1	0	0	0	1	0	1527.94	2	0.654625	1.99939	0.0262453	0.0215506	6	0.00729037	3.50275e-06	-2.85715e-13	49382.2	0.000000000000000E+000	0.000000000000000E+000	0.00729037	0.00729037	0	3	0.00130885
1	1	0	0	0	1	0	1529.63	2	0.684892	1.99939	0.0296252	0.0249305	6	0.00822922	4.13227e-06	-2.85715e-13	52738.3	0.000000000000000E+000	0.000000000000000E+000	0.00822922	0.00822922	0	3	0.00136937
1	1	0	0	0	1	0	1531.47	2	0.714835	1.9992	0.0333112	0.0286165	6	0.00925312	4.84965e-06	-2.85715e-13	56299.2	0.000000000000000E+000	0.000000000000000E+000	0.00925312	0.00925312	0	3	0.0014291
1	1	0	0	0	1	0	1533.51	2	0.744796	1.99952	0.0373891	0.0326944	6	0.0103859	5.67723e-06	-2.85715e-13	60145.6	0.000000000000000E+000	0.000000000000000E+000	0.0103859	0.0103859	0	3	0.00148923
1	1	0	0	0	1	0	1535.82	2	0.775063	1.99869	0.0420072	0.0373125	6	0.0116687	6.65304e-06	-2.85715e-13	64437	0.000000000000000E+000	0.000000000000000E+000	0.0116687	0.0116687	0	3	0.00154911
1	0	0	1	0	1	1	1537.97	-2	0.676337	-2.00186	-1.19337e-06	0.0416051	7	-3.31137e-07	7.59317e-06	-2.26317e-10	68427.8	276.54	3.31137e-07	0.000000000000000E+000	3.31137e-07	0	3	-0.00135393
1	0	0	1	0	1	1	1538.02	-2	0.641755	-2.00199	-0.000102894	0.0415034	7	-2.85813e-05	7.59317e-06	-1.86089e-08	68427.8	2641.92	2.85813e-05	0.000000000000000E+000	2.85813e-05	0	3	-0.00128479
1	0	0	1	0	1	1	1538.29	-2	0.611106	-2.00167	-0.000639818	0.0409665	7	-0.000177726	7.59317e-06	-1.1154e-07	68427.8	9192.81	0.000177726	0.000000000000000E+000	0.000177726	0	3	-0.00122323
1	0	0	1	0	1	1	1538.81	-2	0.580953	-2.00276	-0.00167444	0.0399319	7	-0.000465121	7.59317e-06	-2.82384e-07	68427.8	16785.9	0.000465121	0.000000000000000E+000	0.000465121	0	3	-0.00116351
1	0	0	1	0	1	1	1539.5	-2	0.5504	-2.00218	-0.00307461	0.0385317	7	-0.000854058	7.59317e-06	-5.01986e-07	68427.8	23595.2	0.000854058	0.000000000000000E+000	0.000854058	0	3	-0.001102
1	0	0	1	0	1	1	1540.33	-2	0.519846	-2.00244	-0.00472543	0.0368809	7	-0.00131262	7.59317e-06	-7.46997e-07	68427.8	29376	0.00131262	0.000000000000000E+000	0.00131262	0	3	-0.00104096
1	0	0	1	0	1	1	1541.25	-2	0.489446	-2.00218	-0.00655923	0.0350471	7	-0.00182201	7.59317e-06	-1.00369e-06	68427.8	34294.7	0.00182201	0.000000000000000E+000	0.00182201	0	3	-0.000979959
1	0	0	1	0	1	1	1542.24	-2	0.459007	-2.00142	-0.00854998	0.0330563	7	-0.00237499	7.59317e-06	-1.26555e-06	68427.8	38565.6	0.00237499	0.000000000000000E+000	0.00237499	0	3	-0.000918664
1	0	0	1	0	1	1	1543.27	-2	0.429007	-2.00199	-0.010622	0.0309843	7	-0.00295056	7.59317e-06	-1.52074e-06	68427.8	42201.1	0.00295056	0.000000000000000E+000	0.00295056	0	3	-0.000858868
1	0	0	1	0	1	1	1544.37	-2	0.39874	-2.00205	-0.0128061	0.0288002	7	-0.00355726	7.59317e-06	-1.77148e-06	68427.8	45417.2	0.00355726	0.000000000000000E+000	0.00355726	0	3	-0.000798299
1	0	0	1	0	1	1	1545.51	-2	0.367881	-2.00218	-0.0150939	0.0265124	7	-0.00419276	7.59317e-06	-2.01468e-06	68427.8	48250.4	0.00419276	0.000000000000000E+000	0.00419276	0	3	-0.000736565
1	0	0	1	0	1	1	1546.65	-2	0.337786	-2.00212	-0.0173809	0.0242254	7	-0.00482804	7.59317e-06	-2.23848e-06	68427.8	50685	0.00482804	0.000000000000000E+000	0.00482804	0	3	-0.000676288
1	0	0	1	0	1	1	1547.81	-2	0.307939	-2.00174	-0.0196972	0.0219091	7	-0.00547144	7.59317e-06	-2.44582e-06	68427.8	52840.4	0.00547144	0.000000000000000E+000	0.00547144	0	3	-0.000616413
1	0	0	1	0	1	1	1548.98	-2	0.278054	-2.00218	-0.0220423	0.019564	7	-0.00612286	7.59317e-06	-2.63631e-06	68427.8	54742.7	0.00612286	0.000000000000000E+000	0.00612286	0	3	-0.000556715
1	0	0	1	0	1	1	1550.18	-2	0.247959	-2.00154	-0.0244435	0.0171628	7	-0.00678986	7.59317e-06	-2.81136e-06	68427.8	56484.4	0.00678986	0.000000000000000E+000	0.00678986	0	3	-0.000496301
1	0	0	1	0	1	1	1551.39	-2	0.217864	-2.0018	-0.0268658	0.0147405	7	-0.00746273	7.59317e-06	-2.96772e-06	68427.8	58045.3	0.00746273	0.000000000000000E+000	0.00746273	0	3	-0.00043612
1	0	0	1	0	1	1	1552.62	-2	0.187482	-2.00205	-0.0293367	0.0122696	7	-0.00814908	7.59317e-06	-3.10645e-06	68427.8	59479.4	0.00814908	0.000000000000000E+000	0.00814908	0	3	-0.00037535
1	0	0	1	0	1	1	1553.84	-2	0.157502	-2.00186	-0.0317799	0.00982643	7	-0.00882774	7.59317e-06	-3.22315e-06	68427.8	60740.7	0.00882774	0.000000000000000E+000	0.00882774	0	3	-0.000315297
1	0	0	1	0	1	1	1555.07	-2	0.127464	-2.00199	-0.0342275	0.00737882	7	-0.00950763	7.59317e-06	-3.31964e-06	68427.8	61867	0.00950763	0.000000000000000E+000	0.00950763	0	3	-0.000255181
1	0	0	1	0	1	1	1556.29	-2	0.097235	-2.0025	-0.0366699	0.00493641	7	-0.0101861	7.59317e-06	-3.39549e-06	68427.8	62847.7	0.0101861	0.000000000000000E+000	0.0101861	0	3	-0.000194713
1	0	0	1	0	1	1	1557.51	-2	0.0672353	-2.00186	-0.0391211	0.00248518	7	-0.010867	7.59317e-06	-3.45115e-06	68427.8	63770.1	0.010867	0.000000000000000E+000	0.010867	0	3	-0.000134596
1	0	0	1	0	1	1	1558.76	-2	0.0370829	-2.00161	-0.0416208	-1.44555e-05	7	-0.0115613	7.59317e-06	-3.487e-06	68427.8	64666.3	0.0115613	0.000000000000000E+000	0.0115613	0	3	-7.42254e-05
1	0	0	1	0	1	1	1560.03	-2	0.00698774	-2.00218	-0.0441636	-0.00255735	7	-0.0122677	7.59317e-06	-3.50217e-06	68427.8	65552	0.0122677	0.000000000000000E+000	0.0122677	0	3	-1.39907e-05
1	1	0	0	0	0	0	1560.34	2	0.152059	1.99945	1.95819e-05	-0.00313755	8	5.43944e-06	7.80933e-10	-2.93638e-13	664.813	0.000000000000000E+000	0.000000000000000E+000	5.43944e-06	5.43944e-06	0	4	0.000304035
1	1	0	0	0	0	0	1560.41	2	0.182785	1.99856	0.000164726	-0.00299241	8	4.57572e-05	7.70267e-09	-2.93638e-13	2736.74	0.000000000000000E+000	0.000000000000000E+000	4.57572e-05	4.57572e-05	0	4	0.000365306
1	1	0	0	0	0	0	1560.61	2	0.213338	1.9999	0.000559373	-0.00259776	8	0.000155381	2.96603e-08	-2.93638e-13	6164.17	0.000000000000000E+000	0.000000000000000E+000	0.000155381	0.000155381	0	4	0.000426655
1	1	0	0	0	0	0	1560.93	2	0.244063	1.99894	0.00120112	-0.00195602	8	0.000333643	7.06793e-08	-2.93638e-13	9888.03	0.000000000000000E+000	0.000000000000000E+000	0.000333643	0.000333643	0	4	0.000487869
1	1	0	0	0	0	0	1561.35	2	0.274712	1.99952	0.00203797	-0.00111916	8	0.000566104	1.31229e-07	-2.93638e-13	13397.1	0.000000000000000E+000	0.000000000000000E+000	0.000566104	0.000566104	0	4	0.000549292
1	1	0	0	0	0	0	1561.84	2	0.304865	1.99862	0.00302638	-0.000130748	8	0.000840662	2.11041e-07	-2.93638e-13	16603.5	0.000000000000000E+000	0.000000000000000E+000	0.000840662	0.000840662	0	4	0.00060931
1	1	0	0	0	0	0	1562.42	2	0.33538	1.9985	0.0041783	0.00102116	8	0.00116064	3.13751e-07	-2.93638e-13	19635.9	0.000000000000000E+000	0.000000000000000E+000	0.00116064	0.00116064	0	4	0.000670256
1	1	0	0	0	0	0	1563.06	2	0.365571	1.99977	0.0054594	0.00230227	8	0.0015165	4.3876e-07	-2.93638e-13	22468.6	0.000000000000000E+000	0.000000000000000E+000	0.0015165	0.0015165	0	4	0.000731057
1	1	0	0	0	0	0	1563.77	2	0.39578	1.99882	0.00688122	0.00372409	8	0.00191145	5.89406e-07	-2.93638e-13	25188.5	0.000000000000000E+000	0.000000000000000E+000	0.00191145	0.00191145	0	4	0.000791092
1	1	0	0	0	0	0	1564.57	2	0.426429	1.99894	0.00847457	0.00531744	8	0.00235405	7.71686e-07	-2.93638e-13	27891.7	0.000000000000000E+000	0.000000000000000E+000	0.00235405	0.00235405	0	4	0.000852408
1	1	0	0	0	0	0	1565.43	2	0.456658	1.99933	0.0101999	0.00704272	8	0.00283329	9.83639e-07	-2.93638e-13	30532.4	0.000000000000000E+000	0.000000000000000E+000	0.00283329	0.00283329	0	4	0.000913008
1	1	0	0	0	0	0	1566.38	2	0.486906	1.99894	0.0120911	0.00893394	8	0.00335863	1.23188e-06	-2.93638e-13	33188.5	0.000000000000000E+000	0.000000000000000E+000	0.00335863	0.00335863	0	4	0.000973297
1	1	0	0	0	0	0	1567.41	2	0.517326	1.99875	0.0141634	0.0110063	8	0.00393428	1.52135e-06	-2.93638e-13	35880.9	0.000000000000000E+000	0.000000000000000E+000	0.00393428	0.00393428	0	4	0.00103401
1	1	0	0	0	0	0	1568.54	2	0.547497	1.99939	0.0164137	0.0132566	8	0.00455936	1.8546e-06	-2.93638e-13	38629	0.000000000000000E+000	0.000000000000000E+000	0.00455936	0.00455936	0	4	0.00109466
1	1	0	0	0	0	0	1569.77	2	0.577573	1.99971	0.0188651	0.015708	8	0.0052403	2.23816e-06	-2.93638e-13	41463.3	0.000000000000000E+000	0.000000000000000E+000	0.0052403	0.0052403	0	4	0.00115498
1	1	0	0	0	0	0	1571.12	2	0.608031	1.99933	0.0215716	0.0184145	8	0.00599211	2.68444e-06	-2.93638e-13	44437.2	0.000000000000000E+000	0.000000000000000E+000	0.00599211	0.00599211	0	4	0.00121565
1	1	0	0	0	0	0	1572.58	2	0.638126	1.99882	0.0244852	0.0213281	8	0.00680145	3.18936e-06	-2.93638e-13	47494.7	0.000000000000000E+000	0.000000000000000E+000	0.00680145	0.00680145	0	4	0.0012755
1	1	0	0	0	0	0	1574.16	2	0.668031	1.99945	0.027652	0.0244948	8	0.0076811	3.76451e-06	-2.93638e-13	50696.6	0.000000000000000E+000	0.000000000000000E+000	0.0076811	0.0076811	0	4	0.0013357
1	1	0	0	0	0	0	1575.91	2	0.698202	1.99901	0.0311453	0.0279882	8	0.00865148	4.42815e-06	-2.93638e-13	54108.3	0.000000000000000E+000	0.000000000000000E+000	0.00865148	0.00865148	0	4	0.00139571
1	1	0	0	0	0	0	1577.82	2	0.728278	1.99952	0.0349762	0.0318191	8	0.00971562	5.18789e-06	-2.93638e-13	57746.4	0.000000000000000E+000	0.000000000000000E+000	0.00971562	0.00971562	0	4	0.0014562
1	1	0	0	0	0	0	1579.97	2	0.758297	1.99977	0.0392686	0.0361115	8	0.0109079	6.07504e-06	-2.93638e-13	61771.6	0.000000000000000E+000	0.000000000000000E+000	0.0109079	0.0109079	0	4	0.00151642
1	1	0	0	0	0	0	1582.37	2	0.788278	1.99977	0.0440551	0.040898	8	0.0122375	7.10435e-06	-2.93638e-13	66179.9	0.000000000000000E+000	0.000000000000000E+000	0.0122375	0.0122375	0	4	0.00157637
1	0	0	1	0	0	1	1583.38	-2	0.658979	-2.00186	-1.76091e-05	0.0428967	9	-4.89151e-06	7.54945e-06	-3.2552e-09	68037.9	826.467	4.89151e-06	0.000000000000000E+000	4.89151e-06	0	4	-0.00131919
1	0	0	1	0	0	1	1583.51	-2	0.627776	-2.00193	-0.000269855	0.0426445	9	-7.4959e-05	7.54945e-06	-4.79787e-08	68037.9	5137.47	7.4959e-05	0.000000000000000E+000	7.4959e-05	0	4	-0.00125676
1	0	0	1	0	0	1	1583.89	-2	0.597567	-2.00225	-0.0010354	0.0418789	9	-0.000287611	7.54945e-06	-1.778e-07	68037.9	12514.2	0.000287611	0.000000000000000E+000	0.000287611	0	4	-0.00119648
1	0	0	1	0	0	1	1584.49	-2	0.567567	-2.00212	-0.00223097	0.0406834	9	-0.000619714	7.54945e-06	-3.70872e-07	68037.9	19789	0.000619714	0.000000000000000E+000	0.000619714	0	4	-0.00113634
1	0	0	1	0	0	1	1585.24	-2	0.537243	-2.00231	-0.00373003	0.0391843	9	-0.00103612	7.54945e-06	-6.00523e-07	68037.9	26072.7	0.00103612	0.000000000000000E+000	0.00103612	0	4	-0.00107573
1	0	0	1	0	0	1	1586.09	-2	0.507186	-2.00199	-0.0054421	0.0374722	9	-0.00151169	7.54945e-06	-8.48495e-07	68037.9	31435.5	0.00151169	0.000000000000000E+000	0.00151169	0	4	-0.00101538
1	0	0	1	0	0	1	1587.03	-2	0.476823	-2.0025	-0.00732153	0.0355928	9	-0.00203376	7.54945e-06	-1.10498e-06	68037.9	35981.2	0.00203376	0.000000000000000E+000	0.00203376	0	4	-0.000954839
1	0	0	1	0	0	1	1588.04	-2	0.446709	-2.00263	-0.00934272	0.0335716	9	-0.0025952	7.54945e-06	-1.36389e-06	68037.9	39995.1	0.0025952	0.000000000000000E+000	0.0025952	0	4	-0.000894592
1	0	0	1	0	0	1	1589.11	-2	0.416442	-2.00135	-0.0114732	0.0314411	9	-0.003187	7.54945e-06	-1.61892e-06	68037.9	43481.5	0.003187	0.000000000000000E+000	0.003187	0	4	-0.000833448
1	0	0	1	0	0	1	1590.2	-2	0.386213	-2.00097	-0.0136745	0.0292398	9	-0.00379848	7.54945e-06	-1.86397e-06	68037.9	46497.4	0.00379848	0.000000000000000E+000	0.00379848	0	4	-0.000772802
1	0	0	1	0	0	1	1591.33	-2	0.356118	-2.00256	-0.0159315	0.0269828	9	-0.00442543	7.54945e-06	-2.09633e-06	68037.9	49142.9	0.00442543	0.000000000000000E+000	0.00442543	0	4	-0.000713149
1	0	0	1	0	0	1	1592.49	-2	0.325908	-2.00218	-0.0182454	0.024669	9	-0.00506816	7.54945e-06	-2.31514e-06	68037.9	51482.8	0.00506816	0.000000000000000E+000	0.00506816	0	4	-0.000652528
1	0	0	1	0	0	1	1593.65	-2	0.295985	-2.00218	-0.0205796	0.0223347	9	-0.00571656	7.54945e-06	-2.51639e-06	68037.9	53548	0.00571656	0.000000000000000E+000	0.00571656	0	4	-0.000592616
1	0	0	1	0	0	1	1594.84	-2	0.265871	-2.00218	-0.0229531	0.0199613	9	-0.00637585	7.54945e-06	-2.70125e-06	68037.9	55384	0.00637585	0.000000000000000E+000	0.00637585	0	4	-0.000532322
1	0	0	1	0	0	1	1596.05	-2	0.235776	-2.0018	-0.0253698	0.0175446	9	-0.00704716	7.54945e-06	-2.86928e-06	68037.9	57071	0.00704716	0.000000000000000E+000	0.00704716	0	4	-0.000471976
1	0	0	1	0	0	1	1597.26	-2	0.205623	-2.00231	-0.0278061	0.0151082	9	-0.00772392	7.54945e-06	-3.01827e-06	68037.9	58578.3	0.00772392	0.000000000000000E+000	0.00772392	0	4	-0.000411721
1	0	0	1	0	0	1	1598.5	-2	0.17507	-2.00154	-0.0302893	0.0126251	9	-0.00841368	7.54945e-06	-3.14919e-06	68037.9	59950.7	0.00841368	0.000000000000000E+000	0.00841368	0	4	-0.00035041
1	0	0	1	0	0	1	1599.74	-2	0.144727	-2.00174	-0.032754	0.0101603	9	-0.00909834	7.54945e-06	-3.25832e-06	68037.9	61156.3	0.00909834	0.000000000000000E+000	0.00909834	0	4	-0.000289704
1	0	0	1	0	0	1	1600.95	-2	0.114631	-2.00225	-0.0351884	0.00772595	9	-0.00977455	7.54945e-06	-3.34567e-06	68037.9	62206.1	0.00977455	0.000000000000000E+000	0.00977455	0	4	-0.00022952
1	0	0	1	0	0	1	1602.17	-2	0.0845553	-2.00218	-0.0376323	0.00528199	9	-0.0104534	7.54945e-06	-3.41293e-06	68037.9	63167.9	0.0104534	0.000000000000000E+000	0.0104534	0	4	-0.000169295
1	0	0	1	0	0	1	1603.4	-2	0.0545556	-2.00142	-0.0400915	0.00282283	9	-0.0111365	7.54945e-06	-3.46008e-06	68037.9	64069.5	0.0111365	0.000000000000000E+000	0.0111365	0	4	-0.000109189
1	0	0	1	0	0	1	1604.66	-2	0.0244414	-2.00225	-0.0426075	0.000306819	9	-0.0118354	7.54945e-06	-3.48729e-06	68037.9	64963.9	0.0118354	0.000000000000000E+000	0.0118354	0	4	-4.89377e-05
1	1	0	0	0	1	0	1605.7	2	0.130137	1.99952	1.59043e-06	-0.00177038	10	4.41764e-07	5.63459e-11	-2.82539e-13	221.307	0.000000000000000E+000	0.000000000000000E+000	4.41764e-07	4.41764e-07	0	5	0.000260212
1	1	0	0	0	1	0	1605.72	2	0.164147	1.99869	5.19701e-05	-0.00172	10	1.44361e-05	2.21497e-09	-2.82539e-13	1260.54	0.000000000000000E+000	0.000000000000000E+000	1.44361e-05	1.44361e-05	0	5	0.000328079
1	1	0	0	0	1	0	1605.84	2	0.195025	1.99875	0.000288676	-0.00148329	10	8.01878e-05	1.424e-08	-2.82539e-13	4003.2	0.000000000000000E+000	0.000000000000000E+000	8.01878e-05	8.01878e-05	0	5	0.000389807
1	1	0	0	0	1	0	1606.09	2	0.22533	1.99869	0.000781688	-0.000990283	10	0.000217135	4.32681e-08	-2.82539e-13	7632.36	0.000000000000000E+000	0.000000000000000E+000	0.000217135	0.000217135	0	5	0.000450365
1	1	0	0	0	1	0	1606.44	2	0.255655	1.99831	0.0014926	-0.000279367	10	0.000414612	9.10107e-08	-2.82539e-13	11244.4	0.000000000000000E+000	0.000000000000000E+000	0.000414612	0.000414612	0	5	0.000510876
1	1	0	0	0	1	0	1606.89	2	0.285979	1.99933	0.00238384	0.000611873	10	0.000662179	1.58312e-07	-2.82539e-13	14618.8	0.000000000000000E+000	0.000000000000000E+000	0.000662179	0.000662179	0	5	0.000571765
1	1	0	0	0	1	0	1607.42	2	0.316494	1.9992	0.00343862	0.00166665	10	0.000955173	2.46849e-07	-2.82539e-13	17763.1	0.000000000000000E+000	0.000000000000000E+000	0.000955173	0.000955173	0	5	0.000632734
1	1	0	0	0	1	0	1608.02	2	0.347009	1.99894	0.00464174	0.00286977	10	0.00128937	3.58008e-07	-2.82539e-13	20713.1	0.000000000000000E+000	0.000000000000000E+000	0.00128937	0.00128937	0	5	0.000693652
1	1	0	0	0	1	0	1608.69	2	0.377391	1.99901	0.00598801	0.00421604	10	0.00166334	4.93774e-07	-2.82539e-13	23530.5	0.000000000000000E+000	0.000000000000000E+000	0.00166334	0.00166334	0	5	0.000754407
1	1	0	0	0	1	0	1609.43	2	0.407639	1.9992	0.00746262	0.00569065	10	0.00207295	6.54871e-07	-2.82539e-13	26209.7	0.000000000000000E+000	0.000000000000000E+000	0.00207295	0.00207295	0	5	0.000814951
1	1	0	0	0	1	0	1610.24	2	0.437734	2.00022	0.00908998	0.00731801	10	0.00252499	8.46292e-07	-2.82539e-13	28873.4	0.000000000000000E+000	0.000000000000000E+000	0.00252499	0.00252499	0	5	0.000875563
1	1	0	0	0	1	0	1611.14	2	0.468039	1.99856	0.0108761	0.00910412	10	0.00302114	1.0714e-06	-2.82539e-13	31513.3	0.000000000000000E+000	0.000000000000000E+000	0.00302114	0.00302114	0	5	0.000935405
1	1	0	0	0	1	0	1612.1	2	0.498134	1.99939	0.0128117	0.0110398	10	0.00355881	1.33154e-06	-2.82539e-13	34144.3	0.000000000000000E+000	0.000000000000000E+000	0.00355881	0.00355881	0	5	0.000995964
1	1	0	0	0	1	0	1613.18	2	0.528478	1.99901	0.0149545	0.0131825	10	0.00415403	1.63752e-06	-2.82539e-13	36873.1	0.000000000000000E+000	0.000000000000000E+000	0.00415403	0.00415403	0	5	0.00105643
1	1	0	0	0	1	0	1614.34	2	0.558668	1.99856	0.017278	0.015506	10	0.00479944	1.98885e-06	-2.82539e-13	39650.5	0.000000000000000E+000	0.000000000000000E+000	0.00479944	0.00479944	0	5	0.00111653
1	1	0	0	0	1	0	1615.59	2	0.588611	1.99907	0.0197806	0.0180086	10	0.00549461	2.38813e-06	-2.82539e-13	42475.1	0.000000000000000E+000	0.000000000000000E+000	0.00549461	0.00549461	0	5	0.00117667
1	1	0	0	0	1	0	1616.99	2	0.619107	1.99856	0.0225743	0.0208023	10	0.00627064	2.85727e-06	-2.82539e-13	45494.8	0.000000000000000E+000	0.000000000000000E+000	0.00627064	0.00627064	0	5	0.00123732
1	1	0	0	0	1	0	1618.49	2	0.649183	1.99933	0.0255851	0.0238131	10	0.00710697	3.38823e-06	-2.82539e-13	48615.8	0.000000000000000E+000	0.000000000000000E+000	0.00710697	0.00710697	0	5	0.00129793
1	1	0	0	0	1	0	1620.14	2	0.679202	1.99971	0.028869	0.027097	10	0.00801916	3.99481e-06	-2.82539e-13	51895.5	0.000000000000000E+000	0.000000000000000E+000	0.00801916	0.00801916	0	5	0.0013582
1	1	0	0	0	1	0	1621.92	2	0.70924	1.99894	0.0324407	0.0306688	10	0.00901132	4.68434e-06	-2.82539e-13	55328.7	0.000000000000000E+000	0.000000000000000E+000	0.00901132	0.00901132	0	5	0.00141773
1	1	0	0	0	1	0	1623.92	2	0.739316	1.99952	0.0364283	0.0346564	10	0.010119	5.48743e-06	-2.82539e-13	59098.1	0.000000000000000E+000	0.000000000000000E+000	0.010119	0.010119	0	5	0.00147827
1	1	0	0	0	1	0	1626.13	2	0.769373	1.99907	0.0408489	0.0390769	10	0.0113469	6.41476e-06	-2.82539e-13	63188.5	0.000000000000000E+000	0.000000000000000E+000	0.0113469	0.0113469	0	5	0.00153803
1	1	0	0	0	1	0	1628.61	2	0.799334	1.99907	0.0458021	0.0440301	10	0.0127228	7.49508e-06	-2.82539e-13	67712.3	0.000000000000000E+000	0.000000000000000E+000	0.0127228	0.0127228	0	5	0.00159792
1	0	0	1	0	1	1	1628.7	-2	0.647827	-2.00161	-5.88495e-05	0.0440988	11	-1.63478e-05	7.52342e-06	-1.07264e-08	67847.2	1781.71	1.63478e-05	0.000000000000000E+000	1.63478e-05	0	5	-0.0012967
1	0	0	1	0	1	1	1628.91	-2	0.617006	-2.00225	-0.00048366	0.043674	11	-0.000134351	7.52342e-06	-8.48916e-08	67847.2	7573.91	0.000134351	0.000000000000000E+000	0.000134351	0	5	-0.0012354
1	0	0	1	0	1	1	1629.39	-2	0.586396	-2.00199	-0.00143818	0.0427195	11	-0.000399496	7.52342e-06	-2.43942e-07	67847.2	15223.6	0.000399496	0.000000000000000E+000	0.000399496	0	5	-0.00117396
1	0	0	1	0	1	1	1630.05	-2	0.556052	-2.00193	-0.00276627	0.0413914	11	-0.000768408	7.52342e-06	-4.54255e-07	67847.2	22163.1	0.000768408	0.000000000000000E+000	0.000768408	0	5	-0.00111318
1	0	0	1	0	1	1	1630.84	-2	0.525843	-2.00225	-0.00434898	0.0398087	11	-0.00120805	7.52342e-06	-6.91681e-07	67847.2	28053.5	0.00120805	0.000000000000000E+000	0.00120805	0	5	-0.00105287
1	0	0	1	0	1	1	1631.73	-2	0.495709	-2.00161	-0.00611748	0.0380402	11	-0.0016993	7.52342e-06	-9.42216e-07	67847.2	33039.3	0.0016993	0.000000000000000E+000	0.0016993	0	5	-0.000992216
1	0	0	1	0	1	1	1632.7	-2	0.465347	-2.00231	-0.00805976	0.0360979	11	-0.00223882	7.52342e-06	-1.20109e-06	67847.2	37396.8	0.00223882	0.000000000000000E+000	0.00223882	0	5	-0.000931768
1	0	0	1	0	1	1	1633.73	-2	0.435118	-2.00161	-0.0101238	0.0340339	11	-0.00281216	7.52342e-06	-1.45887e-06	67847.2	41195.6	0.00281216	0.000000000000000E+000	0.00281216	0	5	-0.000870936
1	0	0	1	0	1	1	1634.8	-2	0.405214	-2.00256	-0.0122659	0.0318918	11	-0.00340719	7.52342e-06	-1.70852e-06	67847.2	44497.5	0.00340719	0.000000000000000E+000	0.00340719	0	5	-0.000811466
1	0	0	1	0	1	1	1635.92	-2	0.374794	-2.0018	-0.0145053	0.0296524	11	-0.00402925	7.52342e-06	-1.95074e-06	67847.2	47391.6	0.00402925	0.000000000000000E+000	0.00402925	0	5	-0.000750262
1	0	0	1	0	1	1	1637.06	-2	0.344603	-2.00212	-0.0167879	0.0273698	11	-0.00466331	7.52342e-06	-2.17843e-06	67847.2	49924.8	0.00466331	0.000000000000000E+000	0.00466331	0	5	-0.000689937
1	0	0	1	0	1	1	1638.22	-2	0.314585	-2.00154	-0.0191082	0.0250495	11	-0.00530783	7.52342e-06	-2.39045e-06	67847.2	52167.9	0.00530783	0.000000000000000E+000	0.00530783	0	5	-0.000629655
1	0	0	1	0	1	1	1639.38	-2	0.284642	-2.00186	-0.0214465	0.0227112	11	-0.00595735	7.52342e-06	-2.58467e-06	67847.2	54127	0.00595735	0.000000000000000E+000	0.00595735	0	5	-0.000569815
1	0	0	1	0	1	1	1640.57	-2	0.254738	-2.0025	-0.0238268	0.0203309	11	-0.00661856	7.52342e-06	-2.76262e-06	67847.2	55914.5	0.00661856	0.000000000000000E+000	0.00661856	0	5	-0.000510113
1	0	0	1	0	1	1	1641.78	-2	0.224681	-2.00142	-0.0262432	0.0179145	11	-0.00728977	7.52342e-06	-2.92313e-06	67847.2	57527.3	0.00728977	0.000000000000000E+000	0.00728977	0	5	-0.000449681
1	0	0	1	0	1	1	1643	-2	0.194548	-2.00186	-0.0286852	0.0154725	11	-0.0079681	7.52342e-06	-3.06492e-06	67847.2	58984.2	0.0079681	0.000000000000000E+000	0.0079681	0	5	-0.000389458
1	0	0	1	0	1	1	1644.21	-2	0.164586	-2.00218	-0.0311155	0.0130421	11	-0.0086432	7.52342e-06	-3.18576e-06	67847.2	60268.6	0.0086432	0.000000000000000E+000	0.0086432	0	5	-0.000329532
1	0	0	1	0	1	1	1645.42	-2	0.134587	-2.00148	-0.0335371	0.0106206	11	-0.00931586	7.52342e-06	-3.28605e-06	67847.2	61391.7	0.00931586	0.000000000000000E+000	0.00931586	0	5	-0.000269372
1	0	0	1	0	1	1	1646.65	-2	0.104243	-2.00212	-0.0359899	0.00816781	11	-0.00999719	7.52342e-06	-3.36709e-06	67847.2	62414.8	0.00999719	0.000000000000000E+000	0.00999719	0	5	-0.000208707
1	0	0	1	0	1	1	1647.87	-2	0.0741098	-2.00199	-0.0384438	0.00571384	11	-0.0106788	7.52342e-06	-3.42753e-06	67847.2	63359.5	0.0106788	0.000000000000000E+000	0.0106788	0	5	-0.000148367
1	0	0	1	0	1	1	1649.11	-2	0.0441102	-2.00244	-0.0409182	0.00323945	11	-0.0113662	7.52342e-06	-3.46777e-06	67847.2	64260.4	0.0113662	0.000000000000000E+000	0.0113662	0	5	-8.83278e-05
1	0	0	1	0	1	1	1650.37	-2	0.0139768	-2.00174	-0.0434419	0.000715798	11	-0.0120672	7.52342e-06	-3.48773e-06	67847.2	65141	0.0120672	0.000000000000000E+000	0.0120672	0	5	-2.79779e-05
1	0	0	1	0	1	1	1650.97	-2	0.000189593	-2.0011	-0.0446451	-0.000487393	11	-0.0124014	7.52342e-06	-3.48989e-06	67847.2	65589.2	0.0124014	0.000000000000000E+000	0.0124014	97.2032	5	-3.79394e-07