File: Input_data/[1] JJ1-53 1st SC total meas_12_CV.mpt
EC-Lab ASCII FILE
Nb header lines : 56

Cyclic Voltammetry

Run on channel : 1 (SN 31418)
User :
CE vs. WE compliance from -10 V to 10 V
Electrode connection : standard
Ewe ctrl range : min = -10.00 V, max = 10.00 V
Safety Limits :
	Do not start on E overload
Acquisition started on : 01/25/2023 15:21:28
Technique started on : 01/25/2023 17:58:34
Saved on :
	File : [1] JJ1-53 1st SC total meas_12_CV.mpr
	Directory : C:\Users\Potentiostat\Documents\EC-Lab\Data\Supercapacitor until 2021 02\(230125) SC JJ1-53 54 lower CB better viscosity\
	Host : 127.0.0.1
Device : SP-150 (SN 1275)
Address : USB
EC-Lab for windows v11.16 (software)
Internet server v11.16 (firmware)
Command interpretor v11.16 (firmware)
Electrode material : Au/Pd
Initial state :
Electrolyte : NaCl (0.2M)
Comments : Fe(CN)63-/Fe(CN)64- 5.10-3 M
Reference electrode : SCE Saturated Calomel Electrode (0.241 V)
Electrode surface area : 0.001 cm²
Characteristic mass : 0.001 g
Equivalent Weight : 0.000 g/eq.
Density : 0.000 g/cm3
Cycle Definition : Charge/Discharge alternance
Ei (V)              0.000
vs.                 Ref
dE/dt               100.000
dE/dt unit          mV/s
E1 (V)              0.800
vs.                 Ref
Step percent        50
N                   10
E range min (V)     -10.000
E range max (V)     10.000
I Range             Auto
I Range min         Unset
I Range max         Unset
I Range init        Unset
Bandwidth           7
E2 (V)              0.000
vs.                 Ref
nc cycles           5
Reverse Scan        0
Ef (V)              0.000
vs.                 Eoc

mode	ox/red	error	control changes	counter inc.	time/s	control/V	Ewe/V	<I>/mA	cycle number	(Q-Qo)/C	P/W
2	1	0	0	0	9426.93	0.00906223	0.00861089	-3.2245	1	0.0000000E+000	-2.77658e-05
2	1	0	0	0	9427.08	0.0230758	0.0226181	-2.64525	1	-0.000406206	-5.98307e-05
2	1	0	0	0	9427.23	0.0384729	0.0380472	-2.20773	1	-0.000777974	-8.3998e-05
2	1	0	1	0	9427.38	0.0538633	0.0534084	-1.83803	1	-0.00108798	-9.81662e-05
2	1	0	1	0	9427.54	0.0692648	0.0688126	-1.50803	1	-0.0013446	-0.000103772
2	1	0	1	0	9427.69	0.0846664	0.0842237	-1.20555	1	-0.0015526	-0.000101536
2	1	0	1	0	9427.85	0.100063	0.0995862	-0.927004	1	-0.00171596	-9.23167e-05
2	1	0	1	0	9428	0.115454	0.115038	-0.666851	1	-0.00183783	-7.6713e-05
2	1	0	0	0	9428.19	0.134245	0.133873	-0.373145	1	-0.00193504	-4.9954e-05
2	1	0	0	0	9428.34	0.149635	0.149271	-0.147077	1	-0.00197437	-2.19543e-05
2	1	0	0	0	9428.49	0.165032	0.164606	0.0665123	1	-0.00197983	1.09484e-05
2	1	0	0	0	9428.65	0.180434	0.180029	0.268425	1	-0.00195336	4.83242e-05
2	1	0	1	0	9428.8	0.195824	0.195426	0.460366	1	-0.00189664	8.99673e-05
2	1	0	1	0	9428.96	0.211226	0.210802	0.642744	1	-0.00181104	0.000135492
2	1	0	1	0	9429.11	0.226623	0.226261	0.816366	1	-0.00169807	0.000184712
2	1	0	1	0	9429.26	0.242025	0.241657	0.983212	1	-0.00155886	0.0002376
2	1	0	1	0	9429.45	0.260494	0.260001	1.17352	1	-0.0013595	0.000305116
2	1	0	1	0	9429.6	0.275896	0.275438	1.32548	1	-0.00116649	0.000365086
2	1	0	1	0	9429.76	0.291293	0.290807	1.4704	1	-0.000950595	0.000427604
2	1	0	0	0	9429.91	0.306683	0.306202	1.61049	1	-0.000712965	0.000493135
2	1	0	0	0	9430.07	0.322085	0.321601	1.74569	1	-0.000453993	0.000561416
2	1	0	0	0	9430.22	0.337484	0.336965	1.87612	1	-0.000174591	0.000632187
2	1	0	0	0	9430.37	0.352884	0.352352	2.00297	1	0.000124609	0.000705751
2	1	0	0	0	9430.53	0.368274	0.367743	2.1258	1	0.000442875	0.000781747
2	1	0	0	0	9430.68	0.383676	0.383183	2.24505	1	0.000779934	0.000860266
2	1	0	0	0	9430.84	0.399073	0.398564	2.36217	1	0.00113524	0.000941475
2	1	0	1	0	9430.99	0.414463	0.413957	2.47589	1	0.00150804	0.00102491
2	1	0	1	0	9431.14	0.429865	0.429357	2.58774	1	0.00189843	0.00111107
2	1	0	1	0	9431.3	0.445266	0.444817	2.69814	1	0.00230595	0.00120018
2	1	0	1	0	9431.45	0.460663	0.460161	2.80531	1	0.00273019	0.00129089
2	1	0	1	0	9431.6	0.476054	0.475602	2.91304	1	0.00317074	0.00138545
2	1	0	1	0	9431.76	0.491455	0.490889	3.01772	1	0.00362793	0.00148136
2	1	0	1	0	9431.91	0.506854	0.506367	3.12294	1	0.00410127	0.00158135
2	1	0	0	0	9432.07	0.522243	0.52176	3.22702	1	0.00459041	0.00168373
2	1	0	0	0	9432.22	0.537644	0.537105	3.33032	1	0.0050958	0.00178873
2	1	0	0	0	9432.37	0.553046	0.552564	3.43476	1	0.00561717	0.00189793
2	1	0	0	0	9432.53	0.568443	0.56789	3.53754	1	0.00615457	0.00200893
2	1	0	0	0	9432.68	0.583833	0.583319	3.64153	1	0.00670749	0.00212417
2	1	0	0	0	9432.84	0.599235	0.598715	3.74584	1	0.00727684	0.00224269
2	1	0	1	0	9432.99	0.614625	0.614101	3.84975	1	0.0078618	0.00236413
2	1	0	1	0	9433.14	0.630022	0.62953	3.95594	1	0.00846328	0.00249038
2	1	0	1	0	9433.3	0.645424	0.644891	4.0617	1	0.00908114	0.00261936
2	1	0	1	0	9433.45	0.660825	0.660305	4.16838	1	0.00971529	0.0027524
2	1	0	1	0	9433.61	0.676214	0.675732	4.27676	1	0.0103656	0.00288995
2	1	0	1	0	9433.76	0.691613	0.691112	4.38519	1	0.0110331	0.00303066
2	1	0	1	0	9433.91	0.707014	0.706537	4.49595	1	0.0117174	0.00317656
2	1	0	0	0	9434.07	0.722405	0.721952	4.60722	1	0.0124183	0.00332619
2	1	0	0	0	9434.22	0.737802	0.737299	4.71903	1	0.0131369	0.00347934
2	1	0	0	0	9434.38	0.753203	0.752692	4.83403	1	0.013873	0.00363854
2	1	0	0	0	9434.53	0.768605	0.768072	4.94915	1	0.0146268	0.0038013
2	1	0	0	0	9434.68	0.783995	0.783501	5.06761	1	0.015398	0.00397047
2	1	0	0	0	9434.83	0.798783	0.798341	5.18237	1	0.0161564	0.00413729
2	0	0	0	0	9434.92	0.792312	0.791851	4.85726	1	0.0166083	0.00384623
2	0	0	0	0	9435.08	0.776911	0.776411	4.30056	1	0.0173116	0.003339
2	0	0	0	0	9435.23	0.761522	0.761054	3.80975	1	0.0179343	0.00289943
2	0	0	0	0	9435.38	0.746123	0.745619	3.3595	1	0.0184851	0.0025049
2	0	0	0	0	9435.54	0.730721	0.730275	2.94197	1	0.0189692	0.00214845
2	0	0	1	0	9435.69	0.715331	0.714899	2.55273	1	0.019391	0.00182494
2	0	0	1	0	9435.85	0.699934	0.699422	2.18612	1	0.0197549	0.00152902
2	0	0	1	0	9436	0.684532	0.683991	1.84133	1	0.0200641	0.00125945
2	0	0	1	0	9436.15	0.669131	0.668635	1.51485	1	0.0203217	0.00101288
2	0	0	1	0	9436.31	0.65374	0.65325	1.20531	1	0.0205301	0.000787371
2	0	0	1	0	9436.46	0.638343	0.63786	0.911451	1	0.0206923	0.000581378
2	0	0	1	0	9436.62	0.622942	0.622382	0.630591	1	0.0208103	0.000392468
2	0	0	0	0	9436.8	0.604162	0.603751	0.308161	1	0.0208981	0.000186053
2	0	0	0	0	9436.96	0.58876	0.588345	0.0559986	1	0.0209254	3.29465e-05
2	0	0	0	0	9437.11	0.573363	0.572928	-0.184482	1	0.0209148	-0.000105695
2	0	0	1	0	9437.27	0.557973	0.55758	-0.414175	1	0.020868	-0.000230935
2	0	0	1	0	9437.42	0.542571	0.542197	-0.634797	1	0.0207865	-0.000344185
2	0	0	1	0	9437.57	0.527172	0.526765	-0.844863	1	0.0206719	-0.000445044
2	0	0	1	0	9437.74	0.510231	0.509733	-1.06581	1	0.0205093	-0.000543278
2	0	0	1	0	9437.91	0.493303	0.492804	-1.27684	1	0.020311	-0.000629232
2	0	0	1	0	9438.07	0.477901	0.47741	-1.45887	1	0.0200997	-0.000696478
2	0	0	0	0	9438.22	0.462511	0.462007	-1.63439	1	0.0198611	-0.0007551
2	0	0	0	0	9438.37	0.447114	0.446559	-1.80005	1	0.019596	-0.000803827
2	0	0	0	0	9438.53	0.431712	0.431226	-1.95975	1	0.0193059	-0.000845096
2	0	0	0	0	9438.68	0.416311	0.415782	-2.11263	1	0.0189917	-0.000878395
2	0	0	0	0	9438.84	0.40092	0.400393	-2.25802	1	0.0186547	-0.000904095
2	0	0	0	0	9438.99	0.385523	0.385028	-2.398	1	0.0182957	-0.000923299
2	0	0	0	0	9439.14	0.370122	0.369594	-2.53096	1	0.0179155	-0.000935427
2	0	0	1	0	9439.3	0.354731	0.354227	-2.65813	1	0.0175157	-0.000941579
2	0	0	1	0	9439.45	0.339334	0.338806	-2.77993	1	0.0170963	-0.000941857
2	0	0	1	0	9439.61	0.323933	0.323435	-2.89562	1	0.0166588	-0.000936544
2	0	0	1	0	9439.76	0.308531	0.30802	-3.00585	1	0.0162039	-0.000925862
2	0	0	1	0	9439.91	0.293141	0.292631	-3.11081	1	0.0157326	-0.000910321
2	0	0	1	0	9440.07	0.277744	0.277323	-3.21043	1	0.0152454	-0.000890327
2	0	0	1	0	9440.22	0.262342	0.261906	-3.30722	1	0.014743	-0.00086618
2	0	0	0	0	9440.38	0.246952	0.246501	-3.3983	1	0.0142265	-0.000837684
2	0	0	0	0	9440.53	0.231552	0.231078	-3.48716	1	0.0136958	-0.000805804
2	0	0	0	0	9440.68	0.216153	0.215617	-3.57225	1	0.0131517	-0.000770241
2	0	0	0	0	9440.84	0.200752	0.200307	-3.65357	1	0.0125949	-0.000731836
2	0	0	0	0	9440.99	0.185361	0.18489	-3.73313	1	0.012026	-0.00069022
2	0	0	0	0	9441.15	0.169964	0.169531	-3.8091	1	0.0114448	-0.000645761
2	0	0	0	0	9441.3	0.154562	0.154149	-3.88374	1	0.0108519	-0.000598675
2	0	0	1	0	9441.45	0.139172	0.138741	-3.95686	1	0.010248	-0.000548978
2	0	0	1	0	9441.61	0.123771	0.123285	-4.02714	1	0.00963282	-0.000496487
2	0	0	1	0	9441.76	0.108373	0.107886	-4.09644	1	0.00900685	-0.000441949
2	0	0	1	0	9441.92	0.0929719	0.0924854	-4.16332	1	0.00837035	-0.000385046
2	0	0	1	0	9442.07	0.0775815	0.0771153	-4.22932	1	0.00772409	-0.000326145
2	0	0	1	0	9442.22	0.0621822	0.0617169	-4.29446	1	0.00706727	-0.000265041
2	0	0	1	0	9442.38	0.0467829	0.0463033	-4.35764	1	0.0064006	-0.000201773
2	0	0	0	0	9442.53	0.0313924	0.0309361	-4.42072	1	0.00572465	-0.00013676
2	0	0	0	0	9442.69	0.0159909	0.0155256	-4.48293	1	0.00503858	-6.96002e-05
2	0	0	0	0	9442.83	0.00121371	0.000755278	-4.54122	1	0.00437133	-3.42988e-06
2	1	0	0	1	9442.95	0.0110638	0.0106173	-4.08967	2	0.00385051	-4.34214e-05
2	1	0	0	1	9443.11	0.0264654	0.0260001	-3.57103	2	0.00326241	-9.28472e-05
2	1	0	0	1	9443.26	0.0418558	0.0414206	-3.1163	2	0.00274917	-0.000129079
2	1	0	0	1	9443.42	0.0572529	0.0567568	-2.70711	2	0.00230198	-0.000153647
2	1	0	0	1	9443.57	0.0726544	0.0722011	-2.33159	2	0.0019151	-0.000168343
2	1	0	1	1	9443.72	0.0880449	0.0875888	-1.9849	2	0.00158397	-0.000173855
2	1	0	1	1	9443.88	0.103444	0.102983	-1.66334	2	0.00130397	-0.000171296
2	1	0	1	1	9444.03	0.118843	0.118349	-1.3624	2	0.00107184	-0.000161239
2	1	0	1	1	9444.19	0.134245	0.133743	-1.08119	2	0.000884553	-0.000144602
2	1	0	1	1	9444.34	0.149635	0.149215	-0.816123	2	0.000739322	-0.000121778
2	1	0	1	1	9444.49	0.165032	0.164575	-0.566328	2	0.000633687	-9.32034e-05
2	1	0	1	1	9444.68	0.183513	0.183097	-0.285588	2	0.000555375	-5.22904e-05
2	1	0	0	1	9444.83	0.198904	0.19851	-0.0639023	2	0.000529188	-1.26852e-05
2	1	0	0	1	9444.99	0.214305	0.213893	0.144989	2	0.000536129	3.10121e-05
2	1	0	0	1	9445.14	0.229702	0.229291	0.344785	2	0.000574517	7.90563e-05
2	1	0	0	1	9445.29	0.245104	0.244732	0.535354	2	0.00064299	0.000131018
2	1	0	0	1	9445.45	0.260494	0.260117	0.716467	2	0.00073996	0.000186365
2	1	0	0	1	9445.6	0.275896	0.275496	0.890722	2	0.00086432	0.00024539
2	1	0	0	1	9445.79	0.294372	0.293875	1.08932	2	0.00104768	0.000320123
2	1	0	1	1	9445.94	0.309763	0.309301	1.248	2	0.00122817	0.000386007
2	1	0	1	1	9446.09	0.325164	0.324694	1.40014	2	0.00143267	0.000454616
2	1	0	1	1	9446.25	0.340566	0.340025	1.54664	2	0.00166014	0.000525896
2	1	0	1	1	9446.4	0.355963	0.355455	1.68893	2	0.00190982	0.000600339
2	1	0	1	1	9446.56	0.371353	0.370846	1.82508	2	0.00218081	0.000676824
2	1	0	1	1	9446.71	0.386755	0.386254	1.95838	2	0.00247269	0.000756432
2	1	0	1	1	9446.86	0.402154	0.401677	2.08756	2	0.00278481	0.000838524
2	1	0	0	1	9447.02	0.417542	0.417004	2.21284	2	0.00311627	0.000922764
2	1	0	0	1	9447.17	0.432944	0.432477	2.33597	2	0.00346705	0.00101026
2	1	0	0	1	9447.33	0.448346	0.447878	2.45573	2	0.00383656	0.00109987
2	1	0	0	1	9447.48	0.463734	0.463245	2.57319	2	0.00422403	0.00119202
2	1	0	0	1	9447.63	0.479133	0.478602	2.68972	2	0.00462982	0.00128731
2	1	0	0	1	9447.79	0.494535	0.493997	2.80331	2	0.0050533	0.00138482
2	1	0	1	1	9447.94	0.509925	0.509451	2.91644	2	0.00549389	0.00148578
2	1	0	1	1	9448.1	0.525322	0.524833	3.02778	2	0.0059521	0.00158908
2	1	0	1	1	9448.25	0.540724	0.540185	3.13769	2	0.00642734	0.00169493
2	1	0	1	1	9448.4	0.556125	0.55561	3.24855	2	0.00691961	0.00180493
2	1	0	1	1	9448.56	0.571515	0.571025	3.35743	2	0.00742847	0.00191717
2	1	0	1	1	9448.71	0.586913	0.586407	3.46771	2	0.00795449	0.00203349
2	1	0	1	1	9448.87	0.602314	0.601811	3.57726	2	0.00849747	0.00215283
2	1	0	0	1	9449.02	0.617705	0.617208	3.68627	2	0.00905688	0.0022752
2	1	0	0	1	9449.17	0.633104	0.632643	3.7976	2	0.00963364	0.00240253
2	1	0	0	1	9449.33	0.648503	0.648002	3.90769	2	0.0102275	0.00253219
2	1	0	0	1	9449.48	0.663905	0.663367	4.01904	2	0.0108383	0.0026661
2	1	0	0	1	9449.64	0.679295	0.678794	4.13152	2	0.011466	0.00280445
2	1	0	0	1	9449.79	0.694692	0.694199	4.24454	2	0.0121114	0.00294656
2	1	0	0	1	9449.94	0.710094	0.709661	4.35982	2	0.0127745	0.003094
2	1	0	1	1	9450.1	0.725484	0.724987	4.47488	2	0.0134548	0.00324423
2	1	0	1	1	9450.25	0.740886	0.740421	4.59196	2	0.0141534	0.00339998
2	1	0	1	1	9450.41	0.756283	0.755819	4.71058	2	0.0148702	0.00356034
2	1	0	1	1	9450.56	0.771684	0.771144	4.83029	2	0.0156053	0.00372485
2	1	0	1	1	9450.71	0.787075	0.786572	4.95333	2	0.0163586	0.00389615
2	1	0	1	1	9450.84	0.799857	0.799391	5.05649	2	0.0169986	0.00404211
2	0	0	1	1	9450.95	0.789233	0.788793	4.6074	2	0.0175279	0.00363428
2	0	0	1	1	9451.11	0.773831	0.773339	4.07018	2	0.0181943	0.00314763
2	0	0	1	1	9451.26	0.758441	0.757958	3.59163	2	0.0187826	0.00272231
2	0	0	1	1	9451.41	0.743044	0.74254	3.15161	2	0.0193007	0.00234019
2	0	0	1	1	9451.57	0.727642	0.727153	2.74364	2	0.0197536	0.00199504
2	0	0	0	1	9451.72	0.712252	0.711765	2.3631	2	0.0201456	0.00168197
2	0	0	0	1	9451.88	0.69685	0.696333	2.00389	2	0.0204809	0.00139537
2	0	0	0	1	9452.03	0.681453	0.680993	1.66651	2	0.0207626	0.00113488
2	0	0	0	1	9452.18	0.666052	0.66556	1.34634	2	0.0209937	0.000896072
2	0	0	0	1	9452.34	0.650661	0.650125	1.04272	2	0.0211767	0.000677901
2	0	0	0	1	9452.49	0.635264	0.634714	0.755109	2	0.0213144	0.000479278
2	0	0	0	1	9452.65	0.619862	0.619341	0.479174	2	0.0214087	0.000296772
2	0	0	1	1	9452.83	0.601082	0.600656	0.162943	2	0.0214689	9.78727e-05
2	0	0	1	1	9452.99	0.585681	0.585259	-0.0844056	2	0.0214742	-4.93991e-05
2	0	0	1	1	9453.14	0.570282	0.569858	-0.320381	2	0.0214423	-0.000182572
2	0	0	0	1	9453.29	0.554893	0.55449	-0.545211	2	0.0213751	-0.000302314
2	0	0	0	1	9453.45	0.539492	0.539029	-0.761608	2	0.0212738	-0.000410529
2	0	0	0	1	9453.6	0.52409	0.523697	-0.967008	2	0.02114	-0.000506419
2	0	0	0	1	9453.79	0.50562	0.505171	-1.20401	2	0.0209391	-0.000608233
2	0	0	0	1	9453.94	0.490223	0.489693	-1.39088	2	0.0207387	-0.000681105
2	0	0	0	1	9454.1	0.474822	0.474322	-1.5686	2	0.0205102	-0.000744021
2	0	0	1	1	9454.25	0.459431	0.458896	-1.74041	2	0.0202549	-0.000798665
2	0	0	1	1	9454.4	0.444032	0.443528	-1.90309	2	0.0199738	-0.000844073
2	0	0	1	1	9454.56	0.428633	0.428141	-2.05968	2	0.019668	-0.000881836
2	0	0	1	1	9454.71	0.413231	0.41268	-2.2094	2	0.0193387	-0.000911774
2	0	0	1	1	9454.87	0.397841	0.397338	-2.35134	2	0.0189872	-0.000934276
2	0	0	1	1	9455.02	0.382444	0.381892	-2.48848	2	0.018614	-0.00095033
2	0	0	1	1	9455.17	0.367042	0.366569	-2.61786	2	0.0182202	-0.000959626
2	0	0	0	1	9455.33	0.351652	0.351169	-2.74216	2	0.0178072	-0.000962964
2	0	0	0	1	9455.48	0.33625	0.335743	-2.8612	2	0.0173752	-0.00096063
2	0	0	0	1	9455.64	0.320853	0.32032	-2.97361	2	0.0169253	-0.000952507
2	0	0	0	1	9455.79	0.305452	0.304954	-3.08124	2	0.0164586	-0.000939636
2	0	0	0	1	9455.94	0.290061	0.289621	-3.18286	2	0.015976	-0.000921823
2	0	0	0	1	9456.1	0.274664	0.274245	-3.28105	2	0.0154777	-0.000899811
2	0	0	0	1	9456.25	0.259263	0.258736	-3.37453	2	0.0149647	-0.000873112
2	0	0	1	1	9456.41	0.243872	0.243392	-3.46375	2	0.014438	-0.00084305
2	0	0	1	1	9456.56	0.228471	0.227973	-3.55011	2	0.0138974	-0.000809328
2	0	0	1	1	9456.71	0.213074	0.2126	-3.63277	2	0.0133438	-0.000772326
2	0	0	1	1	9456.87	0.197672	0.197257	-3.71225	2	0.0127778	-0.000732266
2	0	0	1	1	9457.02	0.182282	0.181818	-3.78991	2	0.0122	-0.000689076
2	0	0	1	1	9457.17	0.16688	0.166479	-3.8644	2	0.0116101	-0.000643341
2	0	0	1	1	9457.33	0.151483	0.150982	-3.93818	2	0.0110089	-0.000594595
2	0	0	0	1	9457.48	0.136093	0.135626	-4.00864	2	0.010397	-0.000543675
2	0	0	0	1	9457.64	0.120691	0.120236	-4.07723	2	0.0097739	-0.000490229
2	0	0	0	1	9457.79	0.105294	0.104809	-4.14528	2	0.00914027	-0.000434464
2	0	0	0	1	9457.94	0.0898925	0.0894002	-4.21066	2	0.00849638	-0.000376434
2	0	0	0	1	9458.1	0.0745021	0.0740718	-4.27586	2	0.00784287	-0.000316721
2	0	0	0	1	9458.25	0.0591005	0.0586196	-4.33976	2	0.00717901	-0.000254395
2	0	0	0	1	9458.41	0.0437034	0.0432621	-4.40169	2	0.00650549	-0.000190426
2	0	0	1	1	9458.56	0.028313	0.0278342	-4.46415	2	0.00582281	-0.000124256
2	0	0	1	1	9458.71	0.0129115	0.0124499	-4.52436	2	0.00513023	-5.63278e-05
2	1	0	0	0	9458.84	0.000131913	-0.0003069	-4.57332	2	0.00454618	1.40355e-06
2	1	0	1	0	9458.98	0.0141433	0.0137271	-4.00722	3	0.00394862	-5.50074e-05
2	1	0	1	0	9459.14	0.0295448	0.0290409	-3.50352	3	0.00337196	-0.000101745
2	1	0	1	0	9459.29	0.0449352	0.0444645	-3.05797	3	0.00286843	-0.000135971
2	1	0	1	0	9459.44	0.0603323	0.0598425	-2.65487	3	0.00242971	-0.000158874
2	1	0	1	0	9459.6	0.0757338	0.075262	-2.28464	3	0.0020504	-0.000171946
2	1	0	0	0	9459.75	0.0911243	0.0906442	-1.94274	3	0.00172609	-0.000176098
2	1	0	0	0	9459.91	0.106526	0.105999	-1.62535	3	0.00145226	-0.000172286
2	1	0	0	0	9460.06	0.121923	0.121465	-1.32746	3	0.00122578	-0.000161239
2	1	0	0	0	9460.21	0.137324	0.136829	-1.04917	3	0.00104364	-0.000143557
2	1	0	0	0	9460.37	0.152715	0.152263	-0.786454	3	0.000903165	-0.000119748
2	1	0	0	0	9460.52	0.168114	0.16768	-0.538652	3	0.000801921	-9.03213e-05
2	1	0	1	0	9460.71	0.186903	0.186504	-0.25597	3	0.000727456	-4.77393e-05
2	1	0	1	0	9460.86	0.202293	0.201925	-0.0365722	3	0.000705675	-7.38486e-06
2	1	0	1	0	9461.02	0.217695	0.217271	0.170937	3	0.000716687	3.71397e-05
2	1	0	0	0	9461.17	0.233085	0.232754	0.369382	3	0.00075888	8.59752e-05
2	1	0	0	0	9461.33	0.248482	0.248113	0.558153	3	0.000830929	0.000138485
2	1	0	0	0	9461.48	0.263884	0.263477	0.73768	3	0.000931307	0.000194361
2	1	0	0	0	9461.63	0.279286	0.278928	0.910778	3	0.00105886	0.000254041
2	1	0	0	0	9461.82	0.297755	0.297286	1.10829	3	0.00124544	0.00032948
2	1	0	0	0	9461.97	0.313152	0.312663	1.26528	3	0.00142881	0.000395605
2	1	0	0	0	9462.13	0.328554	0.328045	1.41691	3	0.00163594	0.000464811
2	1	0	1	0	9462.28	0.343944	0.343466	1.56216	3	0.00186573	0.000536549
2	1	0	1	0	9462.44	0.359346	0.35877	1.70358	3	0.00211777	0.000611192
2	1	0	1	0	9462.59	0.374743	0.374171	1.8394	3	0.00239114	0.000688249
2	1	0	1	0	9462.74	0.390145	0.389649	1.97224	3	0.00268515	0.000768481
2	1	0	1	0	9462.9	0.405535	0.405056	2.10063	3	0.0029991	0.000850873
2	1	0	1	0	9463.05	0.420932	0.420395	2.22505	3	0.00333269	0.0009354
2	1	0	1	0	9463.2	0.436334	0.435772	2.34818	3	0.00368536	0.00102327
2	1	0	0	0	9463.36	0.451724	0.451178	2.46665	3	0.00405641	0.0011129
2	1	0	0	0	9463.51	0.467126	0.466625	2.58425	3	0.00444588	0.00120587
2	1	0	0	0	9463.67	0.482523	0.482016	2.70047	3	0.00485339	0.00130167
2	1	0	0	0	9463.82	0.497924	0.497439	2.8139	3	0.0052785	0.00139974
2	1	0	0	0	9463.97	0.513315	0.512824	2.92704	3	0.00572075	0.00150106
2	1	0	0	0	9464.13	0.528716	0.528223	3.03768	3	0.00618055	0.00160457
2	1	0	0	0	9464.28	0.544113	0.543601	3.14814	3	0.00665737	0.00171133
2	1	0	1	0	9464.44	0.559504	0.558999	3.25863	3	0.00715092	0.00182157
2	1	0	1	0	9464.59	0.574905	0.57439	3.36794	3	0.00766165	0.00193451
2	1	0	1	0	9464.74	0.590302	0.58979	3.4778	3	0.00818926	0.00205117
2	1	0	1	0	9464.9	0.605704	0.605181	3.58733	3	0.00873378	0.00217099
2	1	0	1	0	9465.05	0.621094	0.620569	3.69664	3	0.00929474	0.00229402
2	1	0	1	0	9465.21	0.636496	0.635992	3.80813	3	0.00987313	0.00242194
2	1	0	1	0	9465.36	0.651893	0.651383	3.91829	3	0.0104685	0.00255231
2	1	0	0	0	9465.51	0.667283	0.666803	4.03004	3	0.0110806	0.00268724
2	1	0	0	0	9465.67	0.682685	0.682214	4.1425	3	0.0117104	0.00282607
2	1	0	0	0	9465.82	0.698084	0.697522	4.25531	3	0.0123574	0.00296817
2	1	0	0	0	9465.98	0.713483	0.713022	4.37076	3	0.0130222	0.00311644
2	1	0	0	0	9466.13	0.728874	0.728341	4.48626	3	0.0137042	0.00326753
2	1	0	0	0	9466.28	0.744275	0.743753	4.60409	3	0.0144046	0.0034243
2	1	0	0	0	9466.44	0.759672	0.75916	4.72305	3	0.0151234	0.00358555
2	1	0	1	0	9466.59	0.775063	0.774537	4.8431	3	0.0158599	0.00375116
2	1	0	1	0	9466.75	0.790464	0.789978	4.96683	3	0.0166158	0.00392369
2	0	0	1	0	9466.84	0.800165	0.799621	5.05018	3	0.017089	0.00403823
2	0	0	0	0	9466.98	0.786153	0.78567	4.48032	3	0.0177534	0.00352005
2	0	0	0	0	9467.13	0.770752	0.770267	3.95734	3	0.0184014	0.00304821
2	0	0	0	0	9467.29	0.755361	0.75488	3.48795	3	0.0189731	0.00263299
2	0	0	0	0	9467.44	0.739962	0.739443	3.05492	3	0.0194758	0.00225894
2	0	0	0	0	9467.6	0.724563	0.724012	2.65298	3	0.0199142	0.00192079
2	0	0	1	0	9467.75	0.709172	0.708694	2.27683	3	0.0202926	0.00161358
2	0	0	1	0	9467.9	0.693771	0.693287	1.92228	3	0.020615	0.00133269
2	0	0	1	0	9468.06	0.678374	0.677862	1.58852	3	0.0208844	0.0010768
2	0	0	1	0	9468.21	0.662972	0.662469	1.27214	3	0.0211039	0.000842755
2	0	0	1	0	9468.37	0.647582	0.647059	0.972183	3	0.0212758	0.000629059
2	0	0	1	0	9468.52	0.63218	0.631721	0.687579	3	0.0214028	0.000434358
2	0	0	1	0	9468.69	0.615091	0.614594	0.385842	3	0.0214933	0.000237136
2	0	0	0	0	9468.86	0.598003	0.597588	0.10147	3	0.0215351	6.06371e-05
2	0	0	0	0	9469.02	0.582601	0.582201	-0.143358	3	0.0215312	-8.34628e-05
2	0	0	1	0	9469.17	0.567211	0.56679	-0.376636	3	0.0214904	-0.000213474
2	0	0	1	0	9469.32	0.551814	0.551412	-0.599791	3	0.0214146	-0.000330732
2	0	0	1	0	9469.48	0.536412	0.536017	-0.813832	3	0.0213051	-0.000436228
2	0	0	1	0	9469.65	0.519471	0.519095	-1.03762	3	0.0211474	-0.000538624
2	0	0	1	0	9469.82	0.502541	0.502002	-1.25201	3	0.0209537	-0.000628511
2	0	0	1	0	9469.97	0.487144	0.486661	-1.43653	3	0.020746	-0.000699106
2	0	0	1	0	9470.12	0.471742	0.471274	-1.61345	3	0.0205105	-0.000760377
2	0	0	0	0	9470.28	0.456352	0.455856	-1.78286	3	0.0202485	-0.000812726
2	0	0	0	0	9470.43	0.440951	0.440465	-1.94385	3	0.019961	-0.000856199
2	0	0	0	0	9470.59	0.425553	0.425033	-2.09872	3	0.0196491	-0.000892025
2	0	0	0	0	9470.74	0.410152	0.409631	-2.24663	3	0.0193139	-0.000920289
2	0	0	0	0	9470.89	0.394761	0.394288	-2.3874	3	0.0189568	-0.000941323
2	0	0	0	0	9471.05	0.379362	0.378852	-2.52275	3	0.0185781	-0.00095575
2	0	0	0	0	9471.2	0.363963	0.363419	-2.65108	3	0.0181792	-0.000963452
2	0	0	1	0	9471.36	0.348572	0.348053	-2.77409	3	0.0177612	-0.000965532
2	0	0	1	0	9471.51	0.333171	0.332659	-2.89115	3	0.0173244	-0.000961767
2	0	0	1	0	9471.66	0.317774	0.317288	-3.0018	3	0.0168702	-0.000952434
2	0	0	1	0	9471.82	0.302372	0.301893	-3.10838	3	0.0163991	-0.000938399
2	0	0	1	0	9471.97	0.286982	0.28649	-3.20866	3	0.0159125	-0.000919251
2	0	0	1	0	9472.13	0.27158	0.271098	-3.30584	3	0.0154103	-0.000896206
2	0	0	1	0	9472.28	0.256183	0.255699	-3.3981	3	0.0148936	-0.000868891
2	0	0	0	0	9472.43	0.240793	0.240359	-3.48588	3	0.0143634	-0.000837861
2	0	0	0	0	9472.59	0.225391	0.224908	-3.57146	3	0.0138195	-0.000803249
2	0	0	0	0	9472.74	0.209992	0.209573	-3.65251	3	0.0132627	-0.000765468
2	0	0	0	0	9472.9	0.194593	0.194166	-3.73183	3	0.0126937	-0.000724596
2	0	0	0	0	9473.05	0.179202	0.178725	-3.80838	3	0.0121129	-0.000680651
2	0	0	0	0	9473.2	0.163801	0.16338	-3.88245	3	0.0115202	-0.000634316
2	0	0	0	0	9473.36	0.148404	0.147932	-3.95533	3	0.0109163	-0.000585118
2	0	0	1	0	9473.51	0.133013	0.132542	-4.02514	3	0.0103017	-0.000533502
2	0	0	1	0	9473.67	0.117612	0.117182	-4.09376	3	0.00967611	-0.000479713
2	0	0	1	0	9473.82	0.10221	0.101723	-4.16089	3	0.00904005	-0.000423259
2	0	0	1	0	9473.97	0.0868131	0.0863145	-4.22607	3	0.00839381	-0.000364772
2	0	0	1	0	9474.13	0.0714227	0.0709913	-4.29064	3	0.00773802	-0.000304598
2	0	0	1	0	9474.28	0.0560211	0.0554791	-4.35378	3	0.00707194	-0.000241544
2	0	0	1	0	9474.44	0.0406218	0.0401751	-4.41554	3	0.00639627	-0.000177395
2	0	0	0	0	9474.59	0.0252336	0.0247627	-4.47772	3	0.00571147	-0.00011088
2	0	0	0	0	9474.74	0.00983208	0.00932183	-4.5378	3	0.00501683	-4.23006e-05
2	1	0	0	1	9474.86	0.00182559	0.00137519	-4.49042	4	0.00449629	-6.17517e-06
2	1	0	0	1	9475.01	0.0172227	0.0167961	-3.90178	4	0.00385294	-6.55346e-05
2	1	0	0	1	9475.17	0.0326242	0.0321471	-3.41118	4	0.00329145	-0.000109659
2	1	0	0	1	9475.32	0.0480146	0.0475485	-2.97499	4	0.00280138	-0.000141456
2	1	0	0	1	9475.47	0.0634162	0.0629034	-2.57911	4	0.00237487	-0.000162235
2	1	0	0	1	9475.63	0.0788133	0.0783871	-2.21458	4	0.00200679	-0.000173595
2	1	0	1	1	9475.78	0.0942037	0.0937497	-1.878	4	0.00169286	-0.000176062
2	1	0	1	1	9475.94	0.109605	0.109177	-1.56407	4	0.00142869	-0.000170761
2	1	0	1	1	9476.09	0.125005	0.124597	-1.27058	4	0.00121129	-0.000158311
2	1	0	1	1	9476.24	0.140404	0.139933	-0.995469	4	0.00103762	-0.000139299
2	1	0	1	1	9476.4	0.155794	0.155374	-0.7356	4	0.000905162	-0.000114293
2	1	0	1	1	9476.55	0.171196	0.170734	-0.491021	4	0.000811468	-8.3834e-05
2	1	0	0	1	9476.74	0.189976	0.189594	-0.211427	4	0.000745704	-4.00854e-05
2	1	0	0	1	9476.89	0.205373	0.205039	0.00529207	4	0.000730576	1.08508e-06
2	1	0	0	1	9477.05	0.220774	0.220327	0.21095	4	0.000747909	4.6478e-05
2	1	0	1	1	9477.2	0.236165	0.235828	0.407311	4	0.000796136	9.60554e-05
2	1	0	1	1	9477.36	0.251564	0.251173	0.594017	4	0.000873911	0.000149201
2	1	0	1	1	9477.51	0.266963	0.266582	0.772496	4	0.000979735	0.000205933
2	1	0	1	1	9477.66	0.282365	0.281961	0.943745	4	0.00111252	0.000266099
2	1	0	1	1	9477.85	0.300835	0.300344	1.13951	4	0.00130506	0.000342244
2	1	0	1	1	9478	0.316234	0.315739	1.29561	4	0.00149315	0.000409075
2	1	0	1	1	9478.16	0.331633	0.331085	1.44511	4	0.0017048	0.000478455
2	1	0	0	1	9478.31	0.347024	0.346516	1.58994	4	0.00193892	0.00055094
2	1	0	0	1	9478.46	0.362425	0.361896	1.72989	4	0.00219515	0.000626039
2	1	0	0	1	9478.62	0.377822	0.377318	1.8652	4	0.00247253	0.000703771
2	1	0	0	1	9478.77	0.393224	0.392713	1.99677	4	0.00277045	0.000784159
2	1	0	0	1	9478.93	0.408614	0.40814	2.12433	4	0.00308815	0.000867024
2	1	0	0	1	9479.08	0.424016	0.423467	2.2485	4	0.00342536	0.000952165
2	1	0	0	1	9479.23	0.439413	0.438894	2.37039	4	0.00378157	0.00104035
2	1	0	1	1	9479.39	0.454803	0.454276	2.48892	4	0.00415602	0.00113066
2	1	0	1	1	9479.54	0.470205	0.469734	2.60669	4	0.00454883	0.00122445
2	1	0	1	1	9479.7	0.485604	0.485148	2.72169	4	0.00495961	0.00132042
2	1	0	1	1	9479.85	0.501004	0.500516	2.83422	4	0.00538789	0.00141857
2	1	0	1	1	9480	0.516394	0.515902	2.94701	4	0.00583329	0.00152037
2	1	0	1	1	9480.16	0.531795	0.531265	3.05743	4	0.00629615	0.0016243
2	1	0	1	1	9480.31	0.547193	0.546713	3.16809	4	0.00677601	0.00173204
2	1	0	0	1	9480.47	0.562583	0.562055	3.27822	4	0.00727257	0.00184254
2	1	0	0	1	9480.62	0.577985	0.577506	3.38721	4	0.00778627	0.00195613
2	1	0	0	1	9480.77	0.593386	0.592875	3.49719	4	0.00831685	0.0020734
2	1	0	0	1	9480.93	0.608783	0.60824	3.60589	4	0.0088643	0.00219324
2	1	0	0	1	9481.08	0.624174	0.623652	3.71551	4	0.00942819	0.00231718
2	1	0	0	1	9481.24	0.639575	0.639135	3.82678	4	0.0100095	0.00244583
2	1	0	0	1	9481.39	0.654974	0.654469	3.93702	4	0.0106078	0.00257666
2	1	0	1	1	9481.54	0.670363	0.669866	4.04934	4	0.0112229	0.00271252
2	1	0	1	1	9481.7	0.685764	0.685262	4.16118	4	0.0118556	0.00285149
2	1	0	1	1	9481.85	0.701166	0.700675	4.27524	4	0.0125057	0.00299556
2	1	0	1	1	9482.01	0.716563	0.716045	4.39032	4	0.0131734	0.00314367
2	1	0	1	1	9482.16	0.731953	0.731418	4.5062	4	0.0138585	0.00329591
2	1	0	1	1	9482.31	0.747355	0.746902	4.62446	4	0.014562	0.00345402
2	1	0	0	1	9482.47	0.762745	0.762228	4.7435	4	0.0152833	0.00361563
2	1	0	0	1	9482.62	0.778142	0.777625	4.8638	4	0.0160236	0.00378222
2	1	0	0	1	9482.78	0.793544	0.793067	4.98783	4	0.0167827	0.00395569
2	0	0	1	1	9482.86	0.798471	0.797978	4.96421	4	0.0171862	0.00396133
2	0	0	1	1	9483.01	0.783074	0.782574	4.36615	4	0.0179021	0.00341684
2	0	0	1	1	9483.16	0.767672	0.767181	3.85591	4	0.0185337	0.00295818
2	0	0	1	1	9483.32	0.752282	0.751792	3.39501	4	0.0190904	0.00255234
2	0	0	1	1	9483.47	0.73688	0.736359	2.96826	4	0.0195793	0.00218571
2	0	0	1	1	9483.63	0.721483	0.721029	2.57226	4	0.0200049	0.00185468
2	0	0	0	1	9483.78	0.706093	0.705659	2.20077	4	0.0203712	0.00155299
2	0	0	0	1	9483.93	0.690691	0.690166	1.85039	4	0.0206821	0.00127708
2	0	0	0	1	9484.09	0.67529	0.674757	1.52065	4	0.0209408	0.00102607
2	0	0	0	1	9484.24	0.659893	0.659444	1.20721	4	0.02115	0.000796086
2	0	0	0	1	9484.4	0.644502	0.644023	0.911287	4	0.0213122	0.00058689
2	0	0	0	1	9484.55	0.629101	0.628594	0.628282	4	0.02143	0.000394935
2	0	0	1	1	9484.74	0.610321	0.60984	0.301459	4	0.021517	0.000183841
2	0	0	1	1	9484.89	0.594924	0.594489	0.0483543	4	0.0215432	2.87461e-05
2	0	0	1	1	9485.05	0.579522	0.579031	-0.194444	4	0.0215313	-0.000112589
2	0	0	0	1	9485.2	0.564132	0.563687	-0.424982	4	0.0214829	-0.000239557
2	0	0	0	1	9485.35	0.54873	0.548339	-0.646408	4	0.0213997	-0.000354451
2	0	0	0	1	9485.51	0.533333	0.532895	-0.858349	4	0.0212831	-0.00045741
2	0	0	0	1	9485.69	0.514852	0.514371	-1.10005	4	0.021102	-0.000565834
2	0	0	0	1	9485.85	0.499462	0.498953	-1.29289	4	0.0209172	-0.000645091
2	0	0	0	1	9486	0.48406	0.483589	-1.47531	4	0.0207034	-0.000713442
2	0	0	0	1	9486.15	0.468663	0.468182	-1.65074	4	0.0204621	-0.000772848
2	0	0	1	1	9486.31	0.453273	0.452773	-1.81841	4	0.0201945	-0.000823324
2	0	0	1	1	9486.46	0.437871	0.437356	-1.97777	4	0.0199016	-0.00086499
2	0	0	1	1	9486.62	0.422472	0.421963	-2.13162	4	0.0195846	-0.000899467
2	0	0	1	1	9486.77	0.407072	0.406592	-2.27707	4	0.0192445	-0.000925837
2	0	0	1	1	9486.92	0.391682	0.391155	-2.41708	4	0.0188827	-0.000945453
2	0	0	1	1	9487.08	0.37628	0.375733	-2.55096	4	0.0184996	-0.000958481
2	0	0	1	1	9487.23	0.360883	0.360393	-2.67803	4	0.0180964	-0.000965145
2	0	0	0	1	9487.39	0.345493	0.344973	-2.79978	4	0.0176743	-0.000965849
2	0	0	0	1	9487.54	0.330091	0.329596	-2.91516	4	0.0172337	-0.000960825
2	0	0	0	1	9487.69	0.31469	0.314206	-3.02522	4	0.0167758	-0.00095054
2	0	0	0	1	9487.85	0.299293	0.298821	-3.12972	4	0.0163013	-0.000935225
2	0	0	0	1	9488	0.283902	0.283445	-3.22955	4	0.0158114	-0.0009154
2	0	0	0	1	9488.16	0.268501	0.268022	-3.32552	4	0.0153062	-0.000891314
2	0	0	0	1	9488.31	0.253104	0.252648	-3.4166	4	0.0147865	-0.000863197
2	0	0	1	1	9488.46	0.237713	0.237262	-3.50341	4	0.0142536	-0.000831227
2	0	0	1	1	9488.62	0.222312	0.221813	-3.58797	4	0.013707	-0.00079586
2	0	0	1	1	9488.77	0.20691	0.20648	-3.66879	4	0.0131477	-0.000757529
2	0	0	1	1	9488.93	0.191513	0.191021	-3.74757	4	0.0125762	-0.000715863
2	0	0	1	1	9489.08	0.176123	0.175618	-3.8236	4	0.0119932	-0.000671494
2	0	0	1	1	9489.23	0.160721	0.160271	-3.89676	4	0.0113982	-0.000624538
2	0	0	0	1	9489.39	0.145331	0.144843	-3.96887	4	0.0107925	-0.000574863
2	0	0	0	1	9489.54	0.129934	0.129483	-4.03779	4	0.0101755	-0.000522823
2	0	0	0	1	9489.7	0.114532	0.114078	-4.10615	4	0.00954792	-0.000468421
2	0	0	0	1	9489.85	0.0991308	0.0986496	-4.17305	4	0.00890993	-0.000411669
2	0	0	0	1	9490	0.0837426	0.0832449	-4.2379	4	0.00826227	-0.000352784
2	0	0	0	1	9490.16	0.0683432	0.0678497	-4.30235	4	0.00760423	-0.000291913
2	0	0	0	1	9490.31	0.0529417	0.0524846	-4.36443	4	0.00693641	-0.000229066
2	0	0	1	1	9490.47	0.0375513	0.0370886	-4.42686	4	0.00625948	-0.000164186
2	0	0	1	1	9490.62	0.0221542	0.0216624	-4.4882	4	0.00557256	-9.72251e-05
2	0	0	1	1	9490.77	0.00675266	0.00628922	-4.54825	4	0.0048763	-2.8605e-05
2	1	0	1	0	9490.89	0.00490501	0.00446323	-4.35583	5	0.00435992	-1.94411e-05
2	1	0	1	0	9491.04	0.0203043	0.019854	-3.79616	5	0.00373449	-7.53689e-05
2	1	0	1	0	9491.2	0.0357036	0.0352425	-3.31793	5	0.00318819	-0.000116932
2	1	0	1	0	9491.35	0.051094	0.0506297	-2.89063	5	0.00271169	-0.000146352
2	1	0	1	0	9491.5	0.0664956	0.0660091	-2.50201	5	0.00229754	-0.000165155
2	1	0	1	0	9491.66	0.0818927	0.0814018	-2.14312	5	0.0019409	-0.000174454
2	1	0	0	0	9491.81	0.0972831	0.0968346	-1.81203	5	0.00163755	-0.000175467
2	1	0	0	0	9491.97	0.112685	0.112192	-1.50213	5	0.00138327	-0.000168527
2	1	0	0	0	9492.12	0.128086	0.12761	-1.21202	5	0.00117516	-0.000154665
2	1	0	0	0	9492.27	0.143483	0.143015	-0.940651	5	0.00101021	-0.000134527
2	1	0	0	0	9492.43	0.158874	0.15837	-0.683568	5	0.000886005	-0.000108257
2	1	0	0	0	9492.6	0.175971	0.175492	-0.416871	5	0.000793049	-7.31575e-05
2	1	0	1	0	9492.77	0.193055	0.192666	-0.165033	5	0.000743226	-3.17963e-05
2	1	0	1	0	9492.92	0.208452	0.208083	0.0493614	5	0.000735009	1.02713e-05
2	1	0	1	0	9493.08	0.223854	0.223385	0.252442	5	0.000758901	5.63917e-05
2	1	0	0	0	9493.23	0.239244	0.238867	0.447229	5	0.0008134	0.000106828
2	1	0	0	0	9493.39	0.254646	0.254256	0.631488	5	0.000897128	0.000160559
2	1	0	0	0	9493.54	0.270043	0.269654	0.808553	5	0.00100866	0.00021803
2	1	0	0	0	9493.69	0.285444	0.285048	0.978301	5	0.00114691	0.000278863
2	1	0	0	0	9493.88	0.303914	0.30342	1.17235	5	0.00134567	0.000355714
2	1	0	0	0	9494.03	0.319316	0.318798	1.32736	5	0.00153874	0.000423159
2	1	0	0	0	9494.19	0.334713	0.334208	1.4755	5	0.00175515	0.000493123
2	1	0	1	0	9494.34	0.350103	0.349578	1.61942	5	0.00199388	0.000566114
2	1	0	1	0	9494.49	0.365505	0.365035	1.75855	5	0.00225456	0.00064193
2	1	0	1	0	9494.65	0.380906	0.380416	1.89234	5	0.0025362	0.000719876
2	1	0	1	0	9494.8	0.396303	0.395778	2.02349	5	0.00283826	0.000800854
2	1	0	1	0	9494.96	0.411694	0.411163	2.14954	5	0.00315994	0.000883813
2	1	0	1	0	9495.11	0.427095	0.426596	2.27324	5	0.00350104	0.000969753
2	1	0	1	0	9495.26	0.442492	0.442016	2.3944	5	0.00386103	0.00105836
2	1	0	0	0	9495.42	0.457883	0.457344	2.51229	5	0.00423914	0.00114898
2	1	0	0	0	9495.57	0.473284	0.472747	2.62967	5	0.00463558	0.00124317
2	1	0	0	0	9495.73	0.488686	0.488136	2.74378	5	0.00504987	0.00133934
2	1	0	0	0	9495.88	0.504083	0.503578	2.85663	5	0.00548159	0.00143854
2	1	0	0	0	9496.03	0.519473	0.518967	2.96853	5	0.0059304	0.00154057
2	1	0	0	0	9496.19	0.534875	0.534385	3.07919	5	0.00639659	0.00164547
2	1	0	0	0	9496.34	0.550274	0.549761	3.18953	5	0.00687975	0.00175348
2	1	0	1	0	9496.5	0.565662	0.565159	3.29913	5	0.00737957	0.00186453
2	1	0	1	0	9496.65	0.581064	0.580525	3.408	5	0.0078965	0.00197843
2	1	0	1	0	9496.8	0.596466	0.59595	3.518	5	0.00843032	0.00209655
2	1	0	1	0	9496.96	0.611854	0.611346	3.62692	5	0.0089806	0.0022173
2	1	0	1	0	9497.11	0.627253	0.626786	3.73753	5	0.00954807	0.00234263
2	1	0	1	0	9497.27	0.642655	0.642209	3.84784	5	0.0101326	0.00247112
2	1	0	0	0	9497.42	0.658045	0.657562	3.95786	5	0.0107337	0.00260254
2	1	0	0	0	9497.57	0.673442	0.672971	4.07036	5	0.0113524	0.00273923
2	1	0	0	0	9497.73	0.688844	0.688307	4.18218	5	0.0119883	0.00287863
2	1	0	0	0	9497.88	0.704245	0.703769	4.29666	5	0.0126417	0.00302385
2	1	0	0	0	9498.04	0.719635	0.719203	4.41197	5	0.0133123	0.0031731
2	1	0	0	0	9498.19	0.735033	0.734513	4.52796	5	0.0140011	0.00332584
2	1	0	0	0	9498.34	0.750434	0.749935	4.64673	5	0.014708	0.00348475
2	1	0	1	0	9498.5	0.765825	0.765307	4.76535	5	0.0154328	0.00364695
2	1	0	1	0	9498.65	0.781224	0.780735	4.88723	5	0.0161765	0.00381563
2	1	0	1	0	9498.81	0.796623	0.796172	5.01109	5	0.0169392	0.00398969
2	0	0	0	0	9498.89	0.795391	0.794926	4.82953	5	0.0173391	0.00383912
2	0	0	0	0	9499.04	0.77999	0.779481	4.25747	5	0.0180368	0.00331862
2	0	0	0	0	9499.19	0.764593	0.764074	3.75861	5	0.0186526	0.00287185
2	0	0	0	0	9499.35	0.749202	0.748728	3.30537	5	0.019195	0.00247482
2	0	0	0	0	9499.5	0.733801	0.733274	2.88532	5	0.0196705	0.00211573
2	0	0	0	0	9499.66	0.718402	0.717854	2.49399	5	0.0200838	0.00179032
2	0	0	1	0	9499.81	0.703013	0.702524	2.12676	5	0.0204384	0.0014941
2	0	0	1	0	9499.96	0.687612	0.687116	1.78097	5	0.0207384	0.00122374
2	0	0	1	0	9500.12	0.67221	0.671731	1.45508	5	0.0209867	0.000977425
2	0	0	1	0	9500.27	0.656813	0.656307	1.14488	5	0.021186	0.000751391
2	0	0	1	0	9500.43	0.641423	0.640981	0.851713	5	0.0213388	0.000545931
2	0	0	1	0	9500.58	0.626021	0.625495	0.571145	5	0.0214477	0.000357248
2	0	0	0	0	9500.77	0.607241	0.606827	0.248266	5	0.0215244	0.000150654
2	0	0	0	0	9500.92	0.591842	0.59147	-0.00262641	5	0.0215425	-1.55344e-06
2	0	0	0	0	9501.08	0.576443	0.576006	-0.243168	5	0.0215229	-0.000140066
2	0	0	1	0	9501.23	0.561052	0.560697	-0.472008	5	0.0214672	-0.000264653
2	0	0	1	0	9501.38	0.545651	0.545229	-0.69185	5	0.0213769	-0.000377217
2	0	0	1	0	9501.54	0.530254	0.529808	-0.901455	5	0.0212536	-0.000477598
2	0	0	1	0	9501.72	0.511773	0.511289	-1.14123	5	0.0210648	-0.000583496
2	0	0	1	0	9501.88	0.496382	0.495865	-1.33144	5	0.0208738	-0.000660215
2	0	0	1	0	9502.03	0.480981	0.480473	-1.51286	5	0.0206542	-0.000726888
2	0	0	1	0	9502.18	0.465584	0.465097	-1.68687	5	0.0204072	-0.000784557
2	0	0	0	0	9502.34	0.450193	0.449668	-1.85238	5	0.0201343	-0.000832954
2	0	0	0	0	9502.49	0.434792	0.434307	-2.01006	5	0.0198363	-0.000872981
2	0	0	0	0	9502.65	0.41939	0.418851	-2.16246	5	0.0195144	-0.000905746
2	0	0	0	0	9502.8	0.403993	0.403486	-2.30679	5	0.0191697	-0.000930758
2	0	0	0	0	9502.95	0.388603	0.388089	-2.44592	5	0.0188034	-0.000949236
2	0	0	0	0	9503.11	0.373201	0.372702	-2.57841	5	0.018416	-0.00096098
2	0	0	0	0	9503.26	0.357802	0.357306	-2.70342	5	0.0180087	-0.000965949
2	0	0	1	0	9503.42	0.342414	0.341921	-2.8241	5	0.0175828	-0.000965618
2	0	0	1	0	9503.57	0.327012	0.326558	-2.93771	5	0.0171386	-0.000959332
2	0	0	1	0	9503.72	0.311611	0.311107	-3.04694	5	0.0166772	-0.000947925
2	0	0	1	0	9503.88	0.296222	0.295739	-3.15037	5	0.0161998	-0.000931689
2	0	0	1	0	9504.03	0.280823	0.280397	-3.24885	5	0.0157065	-0.000910966
2	0	0	1	0	9504.19	0.265421	0.264936	-3.34394	5	0.0151983	-0.00088593
2	0	0	0	0	9504.34	0.250031	0.249577	-3.43354	5	0.0146763	-0.000856933
2	0	0	0	0	9504.49	0.234634	0.234138	-3.52023	5	0.0141403	-0.000824221
2	0	0	0	0	9504.65	0.219232	0.218752	-3.60386	5	0.0135912	-0.000788351
2	0	0	0	0	9504.8	0.203831	0.203394	-3.68408	5	0.0130296	-0.00074932
2	0	0	0	0	9504.96	0.188441	0.187948	-3.76218	5	0.0124561	-0.000707096
2	0	0	0	0	9505.11	0.173043	0.172583	-3.83712	5	0.0118705	-0.000662223
2	0	0	0	0	9505.26	0.157642	0.15722	-3.91015	5	0.0112735	-0.000614752
2	0	0	1	0	9505.42	0.142251	0.141773	-3.9821	5	0.0106657	-0.000564555
2	0	0	1	0	9505.57	0.126854	0.126377	-4.05072	5	0.0100467	-0.000511919
2	0	0	1	0	9505.73	0.111453	0.11104	-4.11849	5	0.00941725	-0.000457316
2	0	0	1	0	9505.88	0.0960513	0.0955506	-4.18481	5	0.00877743	-0.000399861
2	0	0	1	0	9506.03	0.0806609	0.0801801	-4.24894	5	0.00812802	-0.00034068
2	0	0	1	0	9506.19	0.0652638	0.0647439	-4.31323	5	0.00746824	-0.000279255
2	0	0	1	0	9506.34	0.0498623	0.0494213	-4.37552	5	0.00679874	-0.000216244
2	0	0	0	0	9506.49	0.0344718	0.0339215	-4.43788	5	0.00612013	-0.00015054
2	0	0	0	0	9506.65	0.0190703	0.0185723	-4.49876	5	0.00543158	-8.35522e-05
2	0	0	0	0	9506.8	0.00367324	0.00319678	-4.55825	5	0.00473377	-1.45717e-05
2	1	0	0	1	9506.92	0.00798443	0.00750868	-4.2317	6	0.00422586	-3.17745e-05
2	1	0	0	1	9507.07	0.0233859	0.0228979	-3.69349	6	0.00361763	-8.45732e-05
2	1	0	0	1	9507.23	0.038783	0.0383244	-3.22668	6	0.00308619	-0.000123661
2	1	0	0	1	9507.38	0.0541735	0.0536904	-2.80851	6	0.00262302	-0.00015079
2	1	0	0	1	9507.53	0.069575	0.069089	-2.42582	6	0.00222106	-0.000167598
2	1	0	1	1	9507.69	0.0849654	0.0845231	-2.07282	6	0.00187591	-0.000175201
2	1	0	1	1	9507.84	0.100363	0.0998871	-1.74578	6	0.0015828	-0.00017438
2	1	0	1	1	9508	0.115764	0.115317	-1.44028	6	0.00133831	-0.000166089
2	1	0	1	1	9508.15	0.131166	0.130706	-1.15404	6	0.00113938	-0.00015084
2	1	0	1	1	9508.3	0.146554	0.146066	-0.886379	6	0.000983137	-0.00012947
2	1	0	1	1	9508.46	0.161953	0.161538	-0.63244	6	0.000867018	-0.000102163
2	1	0	0	1	9508.64	0.180744	0.180347	-0.343227	6	0.000775716	-6.19e-05
2	1	0	0	1	9508.8	0.196135	0.195753	-0.119412	6	0.000740817	-2.33753e-05
2	1	0	0	1	9508.95	0.211536	0.211127	0.0924619	6	0.000739451	1.95212e-05
2	1	0	0	1	9509.11	0.226933	0.226555	0.294029	6	0.000769858	6.66138e-05
2	1	0	1	1	9509.26	0.242324	0.241968	0.486482	6	0.000830602	0.000117713
2	1	0	1	1	9509.41	0.257725	0.25734	0.669619	6	0.000920255	0.00017232
2	1	0	1	1	9509.57	0.273124	0.272721	0.845188	6	0.00103748	0.000230501
2	1	0	1	1	9509.72	0.288524	0.288133	1.01288	6	0.00118117	0.000291845
2	1	0	1	1	9509.91	0.306994	0.306461	1.20539	6	0.00138616	0.000369404
2	1	0	1	1	9510.06	0.322395	0.321928	1.35884	6	0.0015842	0.000437448
2	1	0	1	1	9510.22	0.337794	0.337263	1.50608	6	0.00180537	0.000507947
2	1	0	0	1	9510.37	0.353183	0.352672	1.6489	6	0.00204871	0.000581523
2	1	0	0	1	9510.52	0.368584	0.368087	1.78653	6	0.00231381	0.000657597
2	1	0	0	1	9510.68	0.383986	0.383506	1.91979	6	0.00259973	0.000736251
2	1	0	0	1	9510.83	0.399383	0.398911	2.04986	6	0.00290595	0.00081771
2	1	0	0	1	9510.99	0.414773	0.414227	2.17529	6	0.00323162	0.000901062
2	1	0	0	1	9511.14	0.430175	0.429664	2.29889	6	0.00357662	0.00098775
2	1	0	1	1	9511.29	0.445565	0.445066	2.41904	6	0.00394018	0.00107663
2	1	0	1	1	9511.45	0.460962	0.460433	2.53636	6	0.00432222	0.00116782
2	1	0	1	1	9511.6	0.476364	0.475887	2.65292	6	0.00472232	0.00126249
2	1	0	1	1	9511.76	0.491765	0.491219	2.76638	6	0.00514014	0.0013589
2	1	0	1	1	9511.91	0.507156	0.50671	2.87935	6	0.00557509	0.00145899
2	1	0	1	1	9512.06	0.522553	0.522064	2.99103	6	0.00602763	0.00156151
2	1	0	1	1	9512.22	0.537954	0.537418	3.1011	6	0.0064972	0.00166658
2	1	0	0	1	9512.37	0.553345	0.552838	3.2117	6	0.00698344	0.00177555
2	1	0	0	1	9512.52	0.568742	0.568237	3.32044	6	0.0074869	0.0018868
2	1	0	0	1	9512.68	0.584143	0.583642	3.4297	6	0.00800714	0.00200172
2	1	0	0	1	9512.83	0.599545	0.599059	3.53914	6	0.00854426	0.00212015
2	1	0	0	1	9512.99	0.614935	0.614452	3.64795	6	0.00909779	0.00224149
2	1	0	0	1	9513.14	0.630332	0.629851	3.75901	6	0.00966859	0.00236761
2	1	0	0	1	9513.29	0.645734	0.645252	3.86896	6	0.0102564	0.00249646
2	1	0	1	1	9513.45	0.661124	0.660592	3.97946	6	0.0108608	0.0026288
2	1	0	1	1	9513.6	0.676524	0.676008	4.09179	6	0.0114828	0.00276608
2	1	0	1	1	9513.76	0.691923	0.691413	4.20437	6	0.0121221	0.00290696
2	1	0	1	1	9513.91	0.707325	0.706811	4.31886	6	0.0127788	0.00305261
2	1	0	1	1	9514.06	0.722715	0.722231	4.43393	6	0.0134529	0.00320232
2	1	0	1	1	9514.22	0.738112	0.737533	4.55019	6	0.0141451	0.00335592
2	1	0	1	1	9514.37	0.753514	0.753036	4.6693	6	0.0148555	0.00351615
2	1	0	0	1	9514.53	0.768904	0.768378	4.78862	6	0.0155838	0.00367947
2	1	0	0	1	9514.68	0.784306	0.783813	4.91109	6	0.0163311	0.00384938
2	1	0	0	1	9514.83	0.798933	0.798455	5.02894	6	0.0170586	0.00401539
2	0	0	1	1	9514.92	0.792312	0.791819	4.70505	6	0.0174891	0.00372554
2	0	0	1	1	9515.07	0.776911	0.776396	4.15154	6	0.0181693	0.00322324
2	0	0	1	1	9515.22	0.761522	0.761036	3.66449	6	0.0187693	0.00278881
2	0	0	1	1	9515.38	0.746123	0.745641	3.21766	6	0.019298	0.00239922
2	0	0	1	1	9515.53	0.730721	0.730202	2.80368	6	0.0197606	0.00204725
2	0	0	0	1	9515.68	0.715331	0.714839	2.41785	6	0.0201613	0.00172837
2	0	0	0	1	9515.84	0.699934	0.69942	2.05467	6	0.0205048	0.00143707
2	0	0	0	1	9515.99	0.684532	0.683959	1.71318	6	0.020794	0.00117174
2	0	0	0	1	9516.15	0.669131	0.668629	1.3899	6	0.0210321	0.000929329
2	0	0	0	1	9516.3	0.65374	0.653246	1.08353	6	0.0212216	0.000707811
2	0	0	0	1	9516.45	0.638343	0.637852	0.792948	6	0.0213653	0.000505783
2	0	0	0	1	9516.61	0.622942	0.622424	0.515229	6	0.0214653	0.000320691
2	0	0	1	1	9516.8	0.604162	0.603757	0.196234	6	0.0215319	0.000118478
2	0	0	1	1	9516.95	0.58876	0.588333	-0.0528432	6	0.0215422	-3.10894e-05
2	0	0	1	1	9517.1	0.573363	0.572914	-0.290898	6	0.021515	-0.00016666
2	0	0	0	1	9517.26	0.557973	0.557595	-0.517766	6	0.0214521	-0.000288704
2	0	0	0	1	9517.41	0.542571	0.542179	-0.735692	6	0.0213549	-0.000398877
2	0	0	0	1	9517.57	0.527172	0.526711	-0.942942	6	0.0212249	-0.000496658
2	0	0	0	1	9517.75	0.508693	0.508169	-1.18089	6	0.0210283	-0.000600092
2	0	0	0	1	9517.91	0.493303	0.492801	-1.36948	6	0.0208314	-0.000674883
2	0	0	0	1	9518.06	0.477901	0.477408	-1.54903	6	0.020606	-0.000739521
2	0	0	1	1	9518.21	0.462511	0.462025	-1.72181	6	0.0203537	-0.00079552
2	0	0	1	1	9518.37	0.447114	0.446637	-1.88528	6	0.0200753	-0.000842035
2	0	0	1	1	9518.52	0.431712	0.431202	-2.04224	6	0.0197723	-0.000880618
2	0	0	1	1	9518.68	0.416311	0.415799	-2.19273	6	0.0194456	-0.000911735
2	0	0	1	1	9518.83	0.40092	0.400424	-2.33592	6	0.0190965	-0.000935358
2	0	0	1	1	9518.98	0.385523	0.385006	-2.47351	6	0.0187256	-0.000952317
2	0	0	1	1	9519.14	0.370122	0.369597	-2.60436	6	0.0183341	-0.000962562
2	0	0	0	1	9519.29	0.354731	0.354206	-2.72912	6	0.0179231	-0.000966671
2	0	0	0	1	9519.44	0.339334	0.338792	-2.84806	6	0.0174931	-0.000964897
2	0	0	0	1	9519.6	0.323933	0.323406	-2.96078	6	0.0170453	-0.000957532
2	0	0	0	1	9519.75	0.308531	0.308054	-3.06818	6	0.0165805	-0.000945163
2	0	0	0	1	9519.91	0.293141	0.29267	-3.17083	6	0.0160999	-0.000928007
2	0	0	0	1	9520.06	0.277744	0.277306	-3.26803	6	0.0156036	-0.000906245
2	0	0	0	1	9520.21	0.262342	0.261858	-3.36222	6	0.0150925	-0.000880426
2	0	0	1	1	9520.37	0.246952	0.246562	-3.45118	6	0.0145677	-0.000850929
2	0	0	1	1	9520.52	0.231552	0.231067	-3.53731	6	0.0140292	-0.000817354
2	0	0	1	1	9520.68	0.216153	0.215685	-3.61973	6	0.0134776	-0.000780722
2	0	0	1	1	9520.83	0.200752	0.20028	-3.69905	6	0.0129135	-0.000740844
2	0	0	1	1	9520.98	0.185361	0.184891	-3.77686	6	0.0123378	-0.000698308
2	0	0	1	1	9521.14	0.169964	0.169555	-3.85066	6	0.01175	-0.000652899
2	0	0	1	1	9521.29	0.154562	0.154147	-3.92327	6	0.0111509	-0.00060476
2	0	0	0	1	9521.45	0.139172	0.138615	-3.9946	6	0.0105411	-0.00055371
2	0	0	0	1	9521.6	0.123771	0.123319	-4.0632	6	0.00992017	-0.000501069
2	0	0	0	1	9521.75	0.108373	0.107863	-4.13088	6	0.00928878	-0.000445568
2	0	0	0	1	9521.91	0.0929719	0.092542	-4.19611	6	0.00864711	-0.000388316
2	0	0	0	1	9522.06	0.0775815	0.0771203	-4.26067	6	0.00799592	-0.000328584
2	0	0	0	1	9522.22	0.0621822	0.0616835	-4.3244	6	0.00733439	-0.000266744
2	0	0	0	1	9522.37	0.0467829	0.0463298	-4.38631	6	0.00666322	-0.000203217
2	0	0	1	1	9522.52	0.0313924	0.0309433	-4.44824	6	0.00598295	-0.000137643
2	0	0	1	1	9522.68	0.0159909	0.0155595	-4.50888	6	0.00529277	-7.01557e-05
2	0	0	1	1	9522.83	0.00121371	0.000722542	-4.56612	6	0.00462173	-3.29922e-06
2	0	0	1	1	9522.84	-0.000131913	-0.000383284	-4.57072	6	0.00457283	1.75188e-06