File: Input_data/[1] JJ1-53 1st SC total meas_11_CV.mpt
EC-Lab ASCII FILE
Nb header lines : 56

Cyclic Voltammetry

Run on channel : 1 (SN 31418)
User :
CE vs. WE compliance from -10 V to 10 V
Electrode connection : standard
Ewe ctrl range : min = -10.00 V, max = 10.00 V
Safety Limits :
	Do not start on E overload
Acquisition started on : 01/25/2023 15:21:28
Technique started on : 01/25/2023 17:55:22
Saved on :
	File : [1] JJ1-53 1st SC total meas_11_CV.mpr
	Directory : C:\Users\Potentiostat\Documents\EC-Lab\Data\Supercapacitor until 2021 02\(230125) SC JJ1-53 54 lower CB better viscosity\
	Host : 127.0.0.1
Device : SP-150 (SN 1275)
Address : USB
EC-Lab for windows v11.16 (software)
Internet server v11.16 (firmware)
Command interpretor v11.16 (firmware)
Electrode material : Au/Pd
Initial state :
Electrolyte : NaCl (0.2M)
Comments : Fe(CN)63-/Fe(CN)64- 5.10-3 M
Reference electrode : SCE Saturated Calomel Electrode (0.241 V)
Electrode surface area : 0.001 cm²
Characteristic mass : 0.001 g
Equivalent Weight : 0.000 g/eq.
Density : 0.000 g/cm3
Cycle Definition : Charge/Discharge alternance
Ei (V)              0.000
vs.                 Ref
dE/dt               50.000
dE/dt unit          mV/s
E1 (V)              0.800
vs.                 Ref
Step percent        50
N                   10
E range min (V)     -10.000
E range max (V)     10.000
I Range             Auto
I Range min         Unset
I Range max         Unset
I Range init        Unset
Bandwidth           7
E2 (V)              0.000
vs.                 Ref
nc cycles           5
Reverse Scan        0
Ef (V)              0.000
vs.                 Eoc

mode	ox/red	error	control changes	counter inc.	time/s	control/V	Ewe/V	<I>/mA	cycle number	(Q-Qo)/C	P/W
2	1	0	1	0	9234.9	0.00475104	0.0043334	-1.79078	1	0.0000000E+000	-7.76019e-06
2	1	0	0	0	9235.18	0.0187635	0.0182793	-1.31904	1	-0.0004257	-2.41111e-05
2	1	0	1	0	9235.48	0.0341595	0.0337111	-0.975483	1	-0.000775642	-3.28846e-05
2	1	0	1	0	9235.79	0.0495532	0.049098	-0.691704	1	-0.00102996	-3.39613e-05
2	1	0	1	0	9236.12	0.0658801	0.0654422	-0.432654	1	-0.00121099	-2.83138e-05
2	1	0	1	0	9236.44	0.0821939	0.0818384	-0.203007	1	-0.00131349	-1.66138e-05
2	1	0	1	0	9236.75	0.0975943	0.0971882	-0.0101105	1	-0.00134471	-9.82622e-07
2	1	0	1	0	9237.06	0.112994	0.112591	0.165806	1	-0.00131928	1.86682e-05
2	1	0	0	0	9237.37	0.12839	0.128068	0.326528	1	-0.00124205	4.18179e-05
2	1	0	0	0	9237.68	0.143783	0.143345	0.473389	1	-0.00111762	6.78579e-05
2	1	0	0	0	9237.98	0.159185	0.158809	0.610676	1	-0.000949465	9.69808e-05
2	1	0	0	0	9238.29	0.174584	0.174207	0.736014	1	-0.000740879	0.000128219
2	1	0	1	0	9238.6	0.189975	0.189578	0.853753	1	-0.000495074	0.000161853
2	1	0	1	0	9238.91	0.205374	0.205	0.963991	1	-0.000213948	0.000197618
2	1	0	1	0	9239.25	0.222315	0.221824	1.07793	1	0.000132842	0.00023911
2	1	0	0	0	9239.55	0.237709	0.237302	1.17573	1	0.000480814	0.000279004
2	1	0	0	0	9239.86	0.253105	0.252666	1.26687	1	0.00085791	0.000320094
2	1	0	0	0	9240.17	0.268504	0.268057	1.35456	1	0.0012626	0.000363099
2	1	0	0	0	9240.48	0.283904	0.28348	1.43812	1	0.00169373	0.000407678
2	1	0	1	0	9240.79	0.299294	0.298825	1.51787	1	0.00214966	0.000453577
2	1	0	1	0	9241.09	0.314693	0.314199	1.59489	1	0.00262999	0.000501112
2	1	0	1	0	9241.4	0.330095	0.3296	1.66925	1	0.00313368	0.000550184
2	1	0	0	0	9241.71	0.345489	0.344993	1.74135	1	0.00365962	0.000600752
2	1	0	0	0	9242.02	0.360885	0.360425	1.81192	1	0.00420761	0.000653063
2	1	0	0	0	9242.33	0.376284	0.375752	1.88024	1	0.00477712	0.000706504
2	1	0	1	0	9242.63	0.39168	0.391201	1.94811	1	0.00536735	0.000762103
2	1	0	1	0	9242.94	0.407074	0.406569	2.0141	1	0.00597823	0.000818872
2	1	0	1	0	9243.25	0.422474	0.421929	2.07936	1	0.0066095	0.00087734
2	1	0	1	0	9243.56	0.437874	0.437339	2.14501	1	0.007261	0.000938096
2	1	0	0	0	9243.87	0.453264	0.452741	2.20906	1	0.00793198	0.00100013
2	1	0	0	0	9244.17	0.468664	0.468128	2.27453	1	0.00862328	0.00106477
2	1	0	0	0	9244.48	0.484063	0.483571	2.34001	1	0.00933483	0.00113156
2	1	0	1	0	9244.79	0.499459	0.498974	2.40472	1	0.0100661	0.00119989
2	1	0	1	0	9245.1	0.514853	0.514348	2.47123	1	0.0108176	0.00127107
2	1	0	1	0	9245.41	0.530255	0.52972	2.53769	1	0.0115899	0.00134427
2	1	0	1	0	9245.71	0.545654	0.545147	2.60581	1	0.0123829	0.00142055
2	1	0	0	0	9246.02	0.561044	0.560552	2.6751	1	0.0131966	0.00149953
2	1	0	0	0	9246.33	0.576444	0.575962	2.74493	1	0.0140321	0.00158098
2	1	0	0	0	9246.64	0.591844	0.591336	2.81708	1	0.0148895	0.00166584
2	1	0	1	0	9246.95	0.607239	0.606752	2.88917	1	0.0157688	0.00175301
2	1	0	1	0	9247.25	0.622634	0.622127	2.9634	1	0.0166707	0.00184361
2	1	0	1	0	9247.56	0.638034	0.637539	3.04007	1	0.0175962	0.00193816
2	1	0	1	0	9247.87	0.653434	0.652972	3.11647	1	0.0185451	0.00203497
2	1	0	0	0	9248.18	0.668824	0.668333	3.19483	1	0.0195173	0.00213521
2	1	0	0	0	9248.48	0.684223	0.683767	3.27456	1	0.0205144	0.00223904
2	1	0	0	0	9248.79	0.699625	0.699151	3.35518	1	0.0215363	0.00234578
2	1	0	1	0	9249.1	0.715019	0.71455	3.43812	1	0.022583	0.00245671
2	1	0	1	0	9249.41	0.730415	0.729922	3.52123	1	0.0236553	0.00257022
2	1	0	1	0	9249.72	0.745814	0.745341	3.60652	1	0.0247538	0.00268809
2	1	0	1	0	9250.02	0.761214	0.760786	3.6926	1	0.0258787	0.00280927
2	1	0	0	0	9250.33	0.776604	0.776063	3.7791	1	0.0270294	0.00293282
2	1	0	0	0	9250.64	0.792004	0.791485	3.86919	1	0.0282082	0.00306241
2	0	0	1	0	9250.89	0.795082	0.794628	3.70167	1	0.0291834	0.00294145
2	0	0	0	0	9251.2	0.779686	0.779193	3.149	1	0.0302336	0.00245368
2	0	0	0	0	9251.51	0.764293	0.763797	2.68111	1	0.0311281	0.00204782
2	0	0	0	0	9251.82	0.748891	0.748413	2.26566	1	0.0318874	0.00169565
2	0	0	0	0	9252.13	0.733492	0.733021	1.88968	1	0.032525	0.00138518
2	0	0	1	0	9252.43	0.718101	0.717633	1.54758	1	0.033052	0.0011106
2	0	0	1	0	9252.74	0.702702	0.702199	1.23256	1	0.0334783	0.000865504
2	0	0	1	0	9253.05	0.687302	0.686788	0.942262	1	0.0338114	0.000647134
2	0	0	0	0	9253.36	0.671907	0.671447	0.674234	1	0.0340586	0.000452712
2	0	0	0	0	9253.68	0.655587	0.655141	0.409712	1	0.0342333	0.000268419
2	0	0	1	0	9254.01	0.639262	0.638856	0.16535	1	0.0343263	0.000105635
2	0	0	0	0	9254.32	0.623872	0.623461	-0.0501558	1	0.0343427	-3.12702e-05
2	0	0	0	0	9254.63	0.608472	0.60803	-0.250898	1	0.0342949	-0.000152553
2	0	0	0	0	9254.93	0.593073	0.592667	-0.437933	1	0.0341875	-0.000259548
2	0	0	1	0	9255.24	0.577677	0.577213	-0.614402	1	0.0340241	-0.000354641
2	0	0	1	0	9255.55	0.562283	0.561911	-0.778484	1	0.0338084	-0.000437439
2	0	0	1	0	9255.86	0.546881	0.546415	-0.933703	1	0.0335435	-0.000510189
2	0	0	1	0	9256.2	0.529942	0.529434	-1.09357	1	0.033199	-0.00057897
2	0	0	0	0	9256.5	0.514552	0.514066	-1.22818	1	0.0328405	-0.000631363
2	0	0	0	0	9256.81	0.499153	0.498618	-1.35606	1	0.0324413	-0.000676156
2	0	0	0	0	9257.12	0.483751	0.48324	-1.4749	1	0.0320042	-0.000712729
2	0	0	1	0	9257.43	0.468357	0.46786	-1.58783	1	0.0315316	-0.000742881
2	0	0	1	0	9257.74	0.452961	0.452444	-1.6936	1	0.0310253	-0.000766261
2	0	0	1	0	9258.04	0.437562	0.43708	-1.79235	1	0.0304874	-0.000783402
2	0	0	1	0	9258.35	0.422162	0.42165	-1.88641	1	0.0299198	-0.000795405
2	0	0	0	0	9258.66	0.406772	0.406288	-1.97347	1	0.0293247	-0.000801794
2	0	0	0	0	9258.97	0.391373	0.390893	-2.05642	1	0.028703	-0.000803838
2	0	0	0	0	9259.28	0.375971	0.375454	-2.13414	1	0.0280566	-0.000801273
2	0	0	1	0	9259.58	0.360578	0.360104	-2.20572	1	0.0273874	-0.000794288
2	0	0	1	0	9259.89	0.345182	0.344695	-2.27345	1	0.0266969	-0.000783646
2	0	0	1	0	9260.2	0.329782	0.329257	-2.33515	1	0.0259861	-0.000768863
2	0	0	0	0	9260.51	0.314386	0.313873	-2.39277	1	0.0252573	-0.000751025
2	0	0	0	0	9260.82	0.298993	0.298493	-2.44657	1	0.0245114	-0.000730284
2	0	0	0	0	9261.12	0.283591	0.283105	-2.49717	1	0.0237491	-0.000706962
2	0	0	0	0	9261.43	0.268192	0.267734	-2.5454	1	0.0229717	-0.00068149
2	0	0	1	0	9261.74	0.252803	0.252365	-2.59107	1	0.0221802	-0.000653898
2	0	0	1	0	9262.05	0.237402	0.236919	-2.63473	1	0.0213746	-0.000624217
2	0	0	1	0	9262.36	0.222003	0.221537	-2.67761	1	0.0205555	-0.000593188
2	0	0	0	0	9262.66	0.206607	0.206184	-2.71782	1	0.019724	-0.000560371
2	0	0	0	0	9262.97	0.191213	0.190733	-2.75734	1	0.0188804	-0.000525917
2	0	0	0	0	9263.28	0.175812	0.175314	-2.79541	1	0.0180244	-0.000490074
2	0	0	0	0	9263.59	0.160412	0.159907	-2.83126	1	0.0171571	-0.00045274
2	0	0	1	0	9263.89	0.145022	0.144567	-2.86779	1	0.0162791	-0.000414589
2	0	0	1	0	9264.2	0.129623	0.129133	-2.90172	1	0.0153897	-0.000374706
2	0	0	1	0	9264.51	0.114222	0.113769	-2.93602	1	0.0144898	-0.000334028
2	0	0	0	0	9264.82	0.0988273	0.0983384	-2.96937	1	0.0135798	-0.000292003
2	0	0	0	0	9265.13	0.0834324	0.082978	-3.0016	1	0.0126598	-0.000249067
2	0	0	0	0	9265.43	0.068032	0.0675276	-3.0351	1	0.0117293	-0.000204953
2	0	0	0	0	9265.74	0.0526326	0.0522249	-3.0665	1	0.0107888	-0.000160148
2	0	0	1	0	9266.05	0.0372422	0.0367681	-3.09871	1	0.0098391	-0.000113934
2	0	0	1	0	9266.36	0.0218429	0.0213824	-3.13086	1	0.00887883	-6.69454e-05
2	0	0	1	0	9266.67	0.00644138	0.00598799	-3.16228	1	0.00790885	-1.89357e-05
2	1	0	0	1	9266.89	0.0049039	0.00450309	-2.96501	2	0.00721573	-1.33517e-05
2	1	0	0	1	9267.2	0.0203043	0.019868	-2.44553	2	0.00638746	-4.85877e-05
2	1	0	1	1	9267.5	0.0356992	0.0352562	-2.02253	2	0.0057027	-7.13069e-05
2	1	0	1	1	9267.81	0.051094	0.0506855	-1.65978	2	0.00513834	-8.41267e-05
2	1	0	1	1	9268.12	0.0664945	0.065992	-1.34149	2	0.00467832	-8.85275e-05
2	1	0	1	1	9268.43	0.0818938	0.0814497	-1.05641	2	0.00431108	-8.60445e-05
2	1	0	0	1	9268.74	0.0972842	0.096788	-0.801408	2	0.00402704	-7.75667e-05
2	1	0	0	1	9269.04	0.112683	0.112226	-0.569172	2	0.00381769	-6.38759e-05
2	1	0	0	1	9269.38	0.129625	0.129244	-0.337339	2	0.00366561	-4.35992e-05
2	1	0	1	1	9269.69	0.145018	0.144578	-0.146048	2	0.00359261	-2.11153e-05
2	1	0	1	1	9270	0.160414	0.160037	0.0315327	2	0.00357642	5.04641e-06
2	1	0	1	1	9270.31	0.175814	0.175437	0.194437	2	0.00361259	3.41115e-05
2	1	0	0	1	9270.61	0.19121	0.19084	0.346423	2	0.00369718	6.61112e-05
2	1	0	0	1	9270.92	0.206604	0.206259	0.488249	2	0.003827	0.000100706
2	1	0	0	1	9271.23	0.222005	0.221629	0.620368	2	0.00399891	0.000137492
2	1	0	0	1	9271.54	0.237404	0.237044	0.745125	2	0.0042103	0.000176627
2	1	0	1	1	9271.85	0.252795	0.252427	0.861281	2	0.00445868	0.000217411
2	1	0	1	1	9272.15	0.268194	0.267799	0.971879	2	0.00474207	0.000260269
2	1	0	1	1	9272.49	0.285134	0.284681	1.08772	2	0.00509216	0.000309653
2	1	0	0	1	9272.8	0.300529	0.300006	1.18636	2	0.00544329	0.000355914
2	1	0	0	1	9273.11	0.315924	0.315433	1.28114	2	0.00582418	0.000404113
2	1	0	0	1	9273.42	0.331324	0.330823	1.37141	2	0.00623372	0.000453693
2	1	0	0	1	9273.72	0.346724	0.34622	1.45863	2	0.00667051	0.000505007
2	1	0	1	1	9274.03	0.362114	0.361602	1.54284	2	0.00713346	0.000557895
2	1	0	1	1	9274.34	0.377513	0.377008	1.62361	2	0.00762207	0.000612115
2	1	0	1	1	9274.65	0.392915	0.392435	1.70303	2	0.00813533	0.000668327
2	1	0	0	1	9274.96	0.408309	0.407797	1.77987	2	0.00867255	0.000725826
2	1	0	0	1	9275.26	0.423705	0.423169	1.85503	2	0.00923306	0.00078499
2	1	0	0	1	9275.57	0.439104	0.438614	1.92967	2	0.00981689	0.00084638
2	1	0	0	1	9275.88	0.454504	0.453948	2.00246	2	0.0104233	0.000909011
2	1	0	1	1	9276.19	0.469894	0.469425	2.07559	2	0.0110517	0.000974333
2	1	0	1	1	9276.5	0.485294	0.484806	2.14776	2	0.011703	0.00104125
2	1	0	1	1	9276.8	0.500694	0.500127	2.21881	2	0.0123763	0.00110969
2	1	0	0	1	9277.11	0.516084	0.51558	2.29157	2	0.0130714	0.00118149
2	1	0	0	1	9277.42	0.531484	0.530961	2.36307	2	0.0137891	0.0012547
2	1	0	0	1	9277.73	0.546884	0.546366	2.43667	2	0.0145291	0.00133131
2	1	0	1	1	9278.04	0.56228	0.561749	2.51048	2	0.0152917	0.00141026
2	1	0	1	1	9278.34	0.577673	0.577121	2.58419	2	0.0160768	0.00149139
2	1	0	1	1	9278.65	0.593075	0.592583	2.66042	2	0.0168853	0.00157652
2	1	0	1	1	9278.96	0.608474	0.60796	2.73608	2	0.0177173	0.00166342
2	1	0	0	1	9279.27	0.623865	0.623341	2.81332	2	0.0185723	0.00175365
2	1	0	0	1	9279.58	0.639264	0.638742	2.89245	2	0.019452	0.00184753
2	1	0	0	1	9279.88	0.654664	0.654177	2.97193	2	0.020356	0.00194417
2	1	0	1	1	9280.19	0.670059	0.669579	3.05303	2	0.0212843	0.00204425
2	1	0	1	1	9280.5	0.685453	0.684945	3.13466	2	0.0222379	0.00214707
2	1	0	1	1	9280.81	0.700854	0.700343	3.21781	2	0.023217	0.00225357
2	1	0	1	1	9281.12	0.716254	0.715754	3.30283	2	0.0242221	0.00236402
2	1	0	0	1	9281.42	0.731644	0.731128	3.38822	2	0.0252527	0.00247722
2	1	0	0	1	9281.73	0.747043	0.746538	3.47638	2	0.0263107	0.00259525
2	1	0	0	1	9282.04	0.762445	0.761985	3.5656	2	0.027396	0.00271694
2	1	0	1	1	9282.35	0.777839	0.777328	3.65527	2	0.0285086	0.00284134
2	1	0	1	1	9282.66	0.793235	0.792734	3.74841	2	0.0296494	0.00297149
2	0	0	1	1	9282.88	0.795082	0.794596	3.57721	2	0.0305004	0.00284243
2	0	0	0	1	9283.19	0.779686	0.779218	3.02761	2	0.0315127	0.00235917
2	0	0	0	1	9283.5	0.764293	0.763772	2.5632	2	0.0323704	0.0019577
2	0	0	0	1	9283.81	0.748891	0.748457	2.15124	2	0.033094	0.00161011
2	0	0	0	1	9284.12	0.733492	0.733	1.77903	2	0.0336969	0.00130403
2	0	0	1	1	9284.42	0.718101	0.717586	1.44074	2	0.0341904	0.00103386
2	0	0	1	1	9284.73	0.702702	0.702212	1.12922	2	0.0345844	0.000792952
2	0	0	1	1	9285.04	0.687302	0.686849	0.842575	2	0.0348863	0.000578722
2	0	0	0	1	9285.35	0.671907	0.671391	0.577869	2	0.0351033	0.000387977
2	0	0	0	1	9285.69	0.654972	0.65455	0.30796	2	0.0352516	0.000201575
2	0	0	0	1	9285.99	0.639572	0.639187	0.0807511	2	0.03531	5.1615e-05
2	0	0	0	1	9286.3	0.624172	0.623743	-0.13222	2	0.0353008	-8.24714e-05
2	0	0	1	1	9286.61	0.608782	0.608356	-0.329698	2	0.0352283	-0.000200574
2	0	0	1	1	9286.92	0.593383	0.592984	-0.514171	2	0.035097	-0.000304895
2	0	0	1	1	9287.23	0.577981	0.577547	-0.688023	2	0.0349104	-0.000397366
2	0	0	0	1	9287.53	0.562587	0.562219	-0.849607	2	0.0346724	-0.000477665
2	0	0	0	1	9287.84	0.547192	0.546753	-1.00217	2	0.0343861	-0.00054794
2	0	0	0	1	9288.18	0.530252	0.529735	-1.15956	2	0.0340187	-0.000614262
2	0	0	1	1	9288.49	0.514857	0.514389	-1.29209	2	0.0336402	-0.000664636
2	0	0	1	1	9288.8	0.499463	0.498976	-1.4175	2	0.0332219	-0.000707297
2	0	0	1	1	9289.1	0.484061	0.483585	-1.53428	2	0.0327661	-0.000741954
2	0	0	1	1	9289.41	0.468662	0.46818	-1.64505	2	0.0322754	-0.000770178
2	0	0	0	1	9289.72	0.453271	0.452715	-1.7489	2	0.031752	-0.000791755
2	0	0	0	1	9290.03	0.437872	0.437383	-1.84579	2	0.0311973	-0.000807317
2	0	0	0	1	9290.34	0.422472	0.421958	-1.9384	2	0.0306135	-0.000817925
2	0	0	1	1	9290.64	0.407077	0.40658	-2.02376	2	0.0300025	-0.000822821
2	0	0	1	1	9290.95	0.391683	0.391183	-2.105	2	0.0293658	-0.000823439
2	0	0	1	1	9291.26	0.376282	0.375753	-2.18104	2	0.0287047	-0.000819532
2	0	0	1	1	9291.57	0.360882	0.360413	-2.25122	2	0.0280211	-0.000811368
2	0	0	0	1	9291.88	0.345492	0.345033	-2.3172	2	0.027317	-0.000799511
2	0	0	0	1	9292.18	0.330093	0.329643	-2.37739	2	0.026593	-0.00078369
2	0	0	0	1	9292.49	0.314691	0.314207	-2.43363	2	0.0258512	-0.000764664
2	0	0	1	1	9292.8	0.299297	0.298801	-2.48575	2	0.025093	-0.000742746
2	0	0	1	1	9293.11	0.283901	0.283449	-2.53455	2	0.0243192	-0.000718414
2	0	0	1	1	9293.42	0.268502	0.268057	-2.5816	2	0.0235304	-0.000692016
2	0	0	1	1	9293.72	0.253103	0.252652	-2.62602	2	0.0227275	-0.00066347
2	0	0	0	1	9294.03	0.237712	0.237274	-2.66806	2	0.0219119	-0.00063306
2	0	0	0	1	9294.34	0.222313	0.221863	-2.70983	2	0.0210827	-0.000601212
2	0	0	0	1	9294.65	0.206911	0.206465	-2.74875	2	0.0202412	-0.000567519
2	0	0	1	1	9294.95	0.191518	0.191075	-2.78698	2	0.0193882	-0.000532523
2	0	0	1	1	9295.26	0.176122	0.175686	-2.82416	2	0.0185235	-0.000496166
2	0	0	1	1	9295.57	0.160722	0.160255	-2.85925	2	0.0176475	-0.000458208
2	0	0	0	1	9295.88	0.145326	0.144857	-2.89441	2	0.0167609	-0.000419275
2	0	0	0	1	9296.19	0.129933	0.129457	-2.92707	2	0.0158638	-0.000378929
2	0	0	0	1	9296.49	0.114532	0.114049	-2.96052	2	0.0149563	-0.000337645
2	0	0	0	1	9296.8	0.0991318	0.098648	-2.99301	2	0.0140385	-0.000295254
2	0	0	1	1	9297.11	0.0837425	0.0833292	-3.02435	2	0.0131116	-0.000252017
2	0	0	1	1	9297.42	0.0683421	0.0678307	-3.05687	2	0.0121743	-0.000207349
2	0	0	1	1	9297.73	0.0529428	0.0524924	-3.08766	2	0.0112271	-0.000162079
2	0	0	0	1	9298.03	0.0375468	0.0370905	-3.11955	2	0.0102707	-0.000115705
2	0	0	0	1	9298.34	0.0221531	0.0216823	-3.15103	2	0.00930449	-6.83216e-05
2	0	0	0	1	9298.65	0.00675155	0.00626978	-3.18226	2	0.00832832	-1.99521e-05
2	1	0	0	0	9298.88	0.0049039	0.00444743	-2.98539	3	0.00761091	-1.32773e-05
2	1	0	0	0	9299.19	0.0203043	0.019854	-2.46504	3	0.0067765	-4.89409e-05
2	1	0	1	0	9299.49	0.0356992	0.035236	-2.0416	3	0.00608584	-7.19379e-05
2	1	0	1	0	9299.8	0.051094	0.0506144	-1.67834	3	0.00551571	-8.49483e-05
2	1	0	1	0	9300.11	0.0664945	0.0660083	-1.35924	3	0.00505006	-8.97213e-05
2	1	0	1	0	9300.42	0.0818938	0.0814876	-1.07357	3	0.00467743	-8.74822e-05
2	1	0	0	0	9300.73	0.0972842	0.0968419	-0.817909	3	0.0043882	-7.92079e-05
2	1	0	0	0	9301.03	0.112683	0.112245	-0.585418	3	0.00417381	-6.57104e-05
2	1	0	0	0	9301.38	0.129929	0.129545	-0.348952	3	0.00401435	-4.52051e-05
2	1	0	0	0	9301.69	0.145323	0.144963	-0.15748	3	0.00393778	-2.28287e-05
2	1	0	0	0	9301.99	0.160725	0.16035	0.020331	3	0.0039181	3.26007e-06
2	1	0	0	0	9302.3	0.176124	0.175712	0.183442	3	0.00395088	3.22328e-05
2	1	0	1	0	9302.61	0.191514	0.191114	0.335825	3	0.00403212	6.4181e-05
2	1	0	1	0	9302.92	0.206914	0.206582	0.477878	3	0.00415873	9.87211e-05
2	1	0	1	0	9303.23	0.222315	0.221891	0.610053	3	0.00432744	0.000135365
2	1	0	0	0	9303.53	0.237709	0.237332	0.73502	3	0.00453561	0.000174444
2	1	0	0	0	9303.84	0.253105	0.252704	0.851376	3	0.004781	0.000215146
2	1	0	0	0	9304.15	0.268504	0.268105	0.96217	3	0.00506138	0.000257963
2	1	0	0	0	9304.49	0.285444	0.284966	1.07827	3	0.00540826	0.000307269
2	1	0	1	0	9304.8	0.300834	0.300355	1.17713	3	0.00575639	0.000353556
2	1	0	1	0	9305.11	0.316234	0.315724	1.27205	3	0.00613457	0.000401617
2	1	0	1	0	9305.41	0.331634	0.331134	1.36212	3	0.00654128	0.000451044
2	1	0	0	0	9305.72	0.347024	0.346515	1.44967	3	0.00697497	0.000502333
2	1	0	0	0	9306.03	0.362424	0.36194	1.53375	3	0.00743545	0.000555125
2	1	0	0	0	9306.34	0.377823	0.37734	1.61478	3	0.0079213	0.000609322
2	1	0	1	0	9306.64	0.39322	0.392704	1.69413	3	0.00843165	0.00066529
2	1	0	1	0	9306.95	0.408613	0.4081	1.77095	3	0.00896611	0.000722725
2	1	0	1	0	9307.26	0.424015	0.423524	1.84624	3	0.00952405	0.000781926
2	1	0	1	0	9307.57	0.439414	0.438892	1.92079	3	0.0101052	0.00084302
2	1	0	0	0	9307.88	0.454804	0.45427	1.99367	3	0.0107085	0.000905664
2	1	0	0	0	9308.18	0.470204	0.469733	2.0667	3	0.0113346	0.000970797
2	1	0	0	0	9308.49	0.485604	0.485126	2.13875	3	0.0119832	0.00103756
2	1	0	1	0	9308.8	0.500999	0.500455	2.21022	3	0.0126535	0.00110612
2	1	0	1	0	9309.11	0.516394	0.515906	2.28282	3	0.0133462	0.00117772
2	1	0	1	0	9309.42	0.531794	0.531301	2.35451	3	0.0140612	0.00125095
2	1	0	1	0	9309.72	0.547194	0.546722	2.4278	3	0.0147986	0.00132733
2	1	0	0	0	9310.03	0.562584	0.562088	2.50153	3	0.0155581	0.00140608
2	1	0	0	0	9310.34	0.577983	0.577437	2.57519	3	0.0163407	0.00148701
2	1	0	0	0	9310.65	0.593385	0.592874	2.65109	3	0.0171464	0.00157176
2	1	0	1	0	9310.96	0.608779	0.6082	2.72638	3	0.0179752	0.00165819
2	1	0	1	0	9311.26	0.624175	0.623637	2.80378	3	0.0188275	0.00174854
2	1	0	1	0	9311.57	0.639574	0.639097	2.88265	3	0.0197043	0.00184229
2	1	0	1	0	9311.88	0.654974	0.654424	2.96162	3	0.0206052	0.00193815
2	1	0	0	0	9312.19	0.670364	0.669876	3.04294	3	0.0215302	0.00203839
2	1	0	0	0	9312.5	0.685763	0.685235	3.12401	3	0.0224808	0.00214068
2	1	0	0	0	9312.8	0.701165	0.700678	3.2071	3	0.0234567	0.00224715
2	1	0	1	0	9313.11	0.716558	0.716057	3.2921	3	0.0244582	0.00235733
2	1	0	1	0	9313.42	0.731954	0.731406	3.3777	3	0.0254859	0.00247046
2	1	0	1	0	9313.73	0.747354	0.74687	3.4654	3	0.0265406	0.0025882
2	1	0	0	0	9314.04	0.76275	0.7623	3.55435	3	0.0276221	0.00270948
2	1	0	0	0	9314.34	0.778143	0.777606	3.64471	3	0.0287313	0.00283415
2	1	0	0	0	9314.65	0.793545	0.793101	3.73791	3	0.0298692	0.00296454
2	0	0	1	0	9314.87	0.795082	0.794639	3.56437	3	0.0306942	0.00283239
2	0	0	0	0	9315.18	0.779686	0.779189	3.0151	3	0.0317026	0.00234933
2	0	0	0	0	9315.49	0.764293	0.763811	2.55067	3	0.0325564	0.00194823
2	0	0	0	0	9315.8	0.748891	0.748377	2.13889	3	0.0332761	0.0016007
2	0	0	0	0	9316.11	0.733492	0.732987	1.76678	3	0.0338753	0.00129503
2	0	0	1	0	9316.41	0.718101	0.717595	1.42888	3	0.0343651	0.00102536
2	0	0	1	0	9316.72	0.702702	0.702166	1.11752	3	0.0347554	0.000784685
2	0	0	1	0	9317.03	0.687302	0.686821	0.830873	3	0.0350537	0.000570661
2	0	0	0	0	9317.34	0.671907	0.671442	0.566804	3	0.0352672	0.000380576
2	0	0	0	0	9317.68	0.654972	0.65451	0.297132	3	0.0354118	0.000194476
2	0	0	0	0	9317.98	0.639572	0.639172	0.0701524	3	0.0354668	4.48395e-05
2	0	0	0	0	9318.29	0.624172	0.623747	-0.142482	3	0.0354544	-8.88729e-05
2	0	0	1	0	9318.6	0.608782	0.608308	-0.339771	3	0.0353788	-0.000206685
2	0	0	1	0	9318.91	0.593383	0.592975	-0.523895	3	0.0352444	-0.000310657
2	0	0	1	0	9319.22	0.577981	0.577557	-0.697498	3	0.0350549	-0.000402845
2	0	0	0	0	9319.52	0.562587	0.562204	-0.858831	3	0.034814	-0.000482839
2	0	0	0	0	9319.83	0.547192	0.546761	-1.01107	3	0.0345249	-0.000552816
2	0	0	0	0	9320.17	0.530252	0.529755	-1.16837	3	0.0341543	-0.000618951
2	0	0	1	0	9320.48	0.514857	0.514354	-1.30049	3	0.0337732	-0.000668912
2	0	0	1	0	9320.79	0.499463	0.498962	-1.42554	3	0.0333523	-0.000711291
2	0	0	1	0	9321.09	0.484061	0.483599	-1.54217	3	0.0328941	-0.000745792
2	0	0	1	0	9321.4	0.468662	0.468202	-1.6525	3	0.032401	-0.000773702
2	0	0	0	0	9321.71	0.453271	0.452732	-1.7562	3	0.0318752	-0.000795089
2	0	0	0	0	9322.02	0.437872	0.437388	-1.85294	3	0.0313184	-0.000810454
2	0	0	0	0	9322.33	0.422472	0.421949	-1.94512	3	0.0307325	-0.000820742
2	0	0	1	0	9322.63	0.407077	0.406608	-2.03025	3	0.0301194	-0.000825517
2	0	0	1	0	9322.94	0.391683	0.391189	-2.11121	3	0.0294807	-0.000825882
2	0	0	1	0	9323.25	0.376282	0.37575	-2.18692	3	0.0288177	-0.000821737
2	0	0	1	0	9323.56	0.360882	0.360385	-2.25666	3	0.0281324	-0.000813266
2	0	0	0	0	9323.87	0.345492	0.344978	-2.32228	3	0.0274267	-0.000801136
2	0	0	0	0	9324.17	0.330093	0.329604	-2.38202	3	0.0267012	-0.000785122
2	0	0	0	0	9324.48	0.314691	0.314202	-2.43804	3	0.025958	-0.000766038
2	0	0	1	0	9324.79	0.299297	0.298829	-2.48982	3	0.0251984	-0.00074403
2	0	0	1	0	9325.1	0.283901	0.283471	-2.53832	3	0.0244234	-0.000719541
2	0	0	1	0	9325.41	0.268502	0.268015	-2.58503	3	0.0236335	-0.000692826
2	0	0	1	0	9325.71	0.253103	0.252621	-2.62916	3	0.0228297	-0.000664181
2	0	0	0	0	9326.02	0.237712	0.237291	-2.6709	3	0.0220132	-0.000633779
2	0	0	0	0	9326.33	0.222313	0.221833	-2.71212	3	0.0211832	-0.000601636
2	0	0	0	0	9326.64	0.206911	0.206457	-2.7508	3	0.0203411	-0.000567921
2	0	0	1	0	9326.94	0.191518	0.191084	-2.78883	3	0.0194874	-0.0005329
2	0	0	1	0	9327.25	0.176122	0.175628	-2.8254	3	0.0186223	-0.00049622
2	0	0	1	0	9327.56	0.160722	0.160286	-2.86006	3	0.0177459	-0.000458429
2	0	0	0	0	9327.87	0.145326	0.14486	-2.89523	3	0.016859	-0.000419403
2	0	0	0	0	9328.18	0.129933	0.129464	-2.92778	3	0.0159616	-0.000379041
2	0	0	0	0	9328.48	0.114532	0.114076	-2.96083	3	0.0150539	-0.000337761
2	0	0	0	0	9328.79	0.0991318	0.0986417	-2.99323	3	0.0141361	-0.000295258
2	0	0	1	0	9329.1	0.0837425	0.0832655	-3.02457	3	0.0132091	-0.000251843
2	0	0	1	0	9329.41	0.0683421	0.0678614	-3.05652	3	0.0122718	-0.000207419
2	0	0	1	0	9329.72	0.0529428	0.0524703	-3.08751	3	0.0113247	-0.000162002
2	0	0	0	0	9330.02	0.0375468	0.037086	-3.11917	3	0.0103684	-0.000115677
2	0	0	0	0	9330.33	0.0221531	0.0216978	-3.15041	3	0.00940227	-6.83568e-05
2	0	0	0	0	9330.64	0.00675155	0.00629097	-3.18152	3	0.0084263	-2.00149e-05
2	1	0	0	1	9330.87	0.0049039	0.00443819	-2.9849	4	0.00770905	-1.32475e-05
2	1	0	0	1	9331.18	0.0203043	0.0198628	-2.46458	4	0.00687477	-4.89536e-05
2	1	0	1	1	9331.48	0.0356992	0.035263	-2.04089	4	0.00618428	-7.19677e-05
2	1	0	1	1	9331.79	0.051094	0.0506491	-1.67747	4	0.0056144	-8.49623e-05
2	1	0	1	1	9332.1	0.0664945	0.0659633	-1.35874	4	0.005149	-8.96267e-05
2	1	0	1	1	9332.41	0.0818938	0.0814553	-1.07314	4	0.00477655	-8.7413e-05
2	1	0	0	1	9332.72	0.0972842	0.0967585	-0.817438	4	0.00448747	-7.9094e-05
2	1	0	0	1	9333.02	0.112683	0.112225	-0.584841	4	0.00427323	-6.56341e-05
2	1	0	0	1	9333.37	0.129929	0.129584	-0.348358	4	0.0041139	-4.51414e-05
2	1	0	0	1	9333.68	0.145323	0.144856	-0.156798	4	0.00403754	-2.27132e-05
2	1	0	0	1	9333.98	0.160725	0.160331	0.0209722	4	0.00401808	3.36251e-06
2	1	0	0	1	9334.29	0.176124	0.175714	0.184006	4	0.00405104	3.23324e-05
2	1	0	1	1	9334.6	0.191514	0.191077	0.336358	4	0.00413245	6.42704e-05
2	1	0	1	1	9334.91	0.206914	0.206526	0.478416	4	0.00425922	9.88055e-05
2	1	0	1	1	9335.22	0.222315	0.221898	0.610595	4	0.0044281	0.00013549
2	1	0	0	1	9335.52	0.237709	0.23738	0.735516	4	0.00463643	0.000174597
2	1	0	0	1	9335.83	0.253105	0.252699	0.851771	4	0.00488195	0.000215242
2	1	0	0	1	9336.14	0.268504	0.268133	0.962441	4	0.00516243	0.000258062
2	1	0	0	1	9336.48	0.285444	0.284953	1.07839	4	0.00550938	0.00030729
2	1	0	1	1	9336.79	0.300834	0.300316	1.17721	4	0.00585756	0.000353535
2	1	0	1	1	9337.1	0.316234	0.315768	1.27194	4	0.00623573	0.000401637
2	1	0	1	1	9337.4	0.331634	0.331092	1.36203	4	0.00664241	0.000450959
2	1	0	0	1	9337.71	0.347024	0.346538	1.4493	4	0.00707604	0.000502236
2	1	0	0	1	9338.02	0.362424	0.36192	1.53332	4	0.00753638	0.000554938
2	1	0	0	1	9338.33	0.377823	0.377324	1.61413	4	0.00802205	0.00060905
2	1	0	1	1	9338.63	0.39322	0.392702	1.6934	4	0.00853219	0.000664999
2	1	0	1	1	9338.94	0.408613	0.408178	1.77008	4	0.0090664	0.00072251
2	1	0	1	1	9339.25	0.424015	0.423505	1.84519	4	0.00962405	0.000781448
2	1	0	1	1	9339.56	0.439414	0.4389	1.91962	4	0.0102048	0.000842522
2	1	0	0	1	9339.87	0.454804	0.454272	1.99234	4	0.0108078	0.000905065
2	1	0	0	1	9340.17	0.470204	0.469752	2.06549	4	0.0114335	0.000970266
2	1	0	0	1	9340.48	0.485604	0.485128	2.13731	4	0.0120816	0.00103687
2	1	0	1	1	9340.79	0.500999	0.500498	2.20841	4	0.0127514	0.0011053
2	1	0	1	1	9341.1	0.516394	0.515921	2.28097	4	0.0134435	0.0011768
2	1	0	1	1	9341.41	0.531794	0.53129	2.35275	4	0.014158	0.00124999
2	1	0	1	1	9341.71	0.547194	0.54672	2.42582	4	0.0148948	0.00132624
2	1	0	0	1	9342.02	0.562584	0.562141	2.49953	4	0.0156536	0.00140509
2	1	0	0	1	9342.33	0.577983	0.57749	2.5729	4	0.0164356	0.00148583
2	1	0	0	1	9342.64	0.593385	0.592893	2.64886	4	0.0172406	0.00157049
2	1	0	1	1	9342.95	0.608779	0.608269	2.72398	4	0.0180687	0.00165691
2	1	0	1	1	9343.25	0.624175	0.623681	2.80119	4	0.0189202	0.00174705
2	1	0	1	1	9343.56	0.639574	0.639102	2.88007	4	0.0197961	0.00184066
2	1	0	1	1	9343.87	0.654974	0.654477	2.95874	4	0.0206962	0.00193643
2	1	0	0	1	9344.18	0.670364	0.669887	3.03964	4	0.0216203	0.00203622
2	1	0	0	1	9344.49	0.685763	0.685281	3.12082	4	0.0225699	0.00213864
2	1	0	0	1	9344.79	0.701165	0.70068	3.20366	4	0.0235447	0.00224474
2	1	0	1	1	9345.1	0.716558	0.716052	3.28834	4	0.0245451	0.00235462
2	1	0	1	1	9345.41	0.731954	0.731439	3.37352	4	0.0255716	0.00246752
2	1	0	1	1	9345.72	0.747354	0.746852	3.46145	4	0.026625	0.00258519
2	1	0	0	1	9346.03	0.76275	0.762272	3.55019	4	0.0277054	0.00270621
2	1	0	0	1	9346.33	0.778143	0.777647	3.64042	4	0.0288133	0.00283096
2	1	0	0	1	9346.64	0.793545	0.793027	3.7338	4	0.0299499	0.002961
2	0	0	1	1	9346.86	0.795082	0.794608	3.56047	4	0.030774	0.00282917
2	0	0	0	1	9347.17	0.779686	0.779181	3.01094	4	0.0317812	0.00234607
2	0	0	0	1	9347.48	0.764293	0.763798	2.54664	4	0.0326337	0.00194512
2	0	0	0	1	9347.79	0.748891	0.748432	2.13491	4	0.0333522	0.00159784
2	0	0	0	1	9348.1	0.733492	0.732956	1.76271	4	0.0339501	0.00129199
2	0	0	1	1	9348.4	0.718101	0.71754	1.42465	4	0.0344387	0.00102224
2	0	0	1	1	9348.71	0.702702	0.702208	1.11378	4	0.0348278	0.000782108
2	0	0	1	1	9349.02	0.687302	0.686806	0.827334	4	0.0351249	0.000568217
2	0	0	0	1	9349.33	0.671907	0.671433	0.563212	4	0.0353374	0.000378159
2	0	0	0	1	9349.67	0.654972	0.654548	0.293513	4	0.0354806	0.000192118
2	0	0	0	1	9349.97	0.639572	0.639163	0.0666307	4	0.0355346	4.25879e-05
2	0	0	0	1	9350.28	0.624172	0.623718	-0.145913	4	0.0355211	-9.10087e-05
2	0	0	1	1	9350.59	0.608782	0.608321	-0.343212	4	0.0354444	-0.000208783
2	0	0	1	1	9350.9	0.593383	0.592934	-0.527221	4	0.035309	-0.000312607
2	0	0	1	1	9351.21	0.577981	0.577576	-0.700704	4	0.0351185	-0.00040471
2	0	0	0	1	9351.51	0.562587	0.562183	-0.861976	4	0.0348766	-0.000484588
2	0	0	0	1	9351.82	0.547192	0.54676	-1.01411	4	0.0345866	-0.000554474
2	0	0	0	1	9352.16	0.530252	0.529719	-1.17105	4	0.0342152	-0.000620325
2	0	0	1	1	9352.47	0.514857	0.514373	-1.30325	4	0.0338331	-0.000670357
2	0	0	1	1	9352.78	0.499463	0.498957	-1.42838	4	0.0334114	-0.000712701
2	0	0	1	1	9353.08	0.484061	0.48357	-1.54485	4	0.0329523	-0.000747045
2	0	0	1	1	9353.39	0.468662	0.468171	-1.6551	4	0.0324585	-0.000774871
2	0	0	0	1	9353.7	0.453271	0.452759	-1.75855	4	0.0319319	-0.0007962
2	0	0	0	1	9354.01	0.437872	0.437329	-1.85522	4	0.0313744	-0.000811343
2	0	0	0	1	9354.32	0.422472	0.421922	-1.94743	4	0.0307877	-0.000821663
2	0	0	1	1	9354.62	0.407077	0.406592	-2.03239	4	0.030174	-0.000826352
2	0	0	1	1	9354.93	0.391683	0.3912	-2.1132	4	0.0295348	-0.000826682
2	0	0	1	1	9355.24	0.376282	0.375787	-2.1885	4	0.0288712	-0.000822411
2	0	0	1	1	9355.55	0.360882	0.360373	-2.25816	4	0.0281854	-0.000813778
2	0	0	0	1	9355.86	0.345492	0.344999	-2.32352	4	0.0274793	-0.000801611
2	0	0	0	1	9356.16	0.330093	0.329577	-2.38303	4	0.0267534	-0.000785391
2	0	0	0	1	9356.47	0.314691	0.314191	-2.43877	4	0.02601	-0.00076624
2	0	0	1	1	9356.78	0.299297	0.298828	-2.49038	4	0.0252502	-0.000744195
2	0	0	1	1	9357.09	0.283901	0.283461	-2.53874	4	0.0244751	-0.000719634
2	0	0	1	1	9357.4	0.268502	0.268056	-2.58507	4	0.0236851	-0.000692942
2	0	0	1	1	9357.7	0.253103	0.252646	-2.62909	4	0.0228812	-0.000664228
2	0	0	0	1	9358.01	0.237712	0.237253	-2.67072	4	0.0220647	-0.000633636
2	0	0	0	1	9358.32	0.222313	0.221814	-2.71196	4	0.0212349	-0.000601549
2	0	0	0	1	9358.63	0.206911	0.206438	-2.75024	4	0.0203929	-0.000567755
2	0	0	1	1	9358.93	0.191518	0.191032	-2.78822	4	0.0195394	-0.000532639
2	0	0	1	1	9359.24	0.176122	0.175634	-2.82471	4	0.0186745	-0.000496114
2	0	0	1	1	9359.55	0.160722	0.160257	-2.85897	4	0.0177984	-0.00045817
2	0	0	0	1	9359.86	0.145326	0.144857	-2.89408	4	0.0169118	-0.000419228
2	0	0	0	1	9360.17	0.129933	0.129473	-2.92639	4	0.0160148	-0.000378889
2	0	0	0	1	9360.47	0.114532	0.114077	-2.95926	4	0.0151076	-0.000337584
2	0	0	0	1	9360.78	0.0991318	0.0986332	-2.99145	4	0.0141902	-0.000295057
2	0	0	1	1	9361.09	0.0837425	0.0832981	-3.02264	4	0.0132639	-0.00025178
2	0	0	1	1	9361.4	0.0683421	0.067839	-3.05482	4	0.0123271	-0.000207236
2	0	0	1	1	9361.71	0.0529428	0.0524562	-3.08535	4	0.0113806	-0.000161846
2	0	0	0	1	9362.01	0.0375468	0.0371054	-3.11702	4	0.010425	-0.000115658
2	0	0	0	1	9362.32	0.0221531	0.021659	-3.14839	4	0.00945954	-6.81909e-05
2	0	0	0	1	9362.63	0.00675155	0.00627767	-3.17964	4	0.00848419	-1.99607e-05
2	1	0	0	0	9362.86	0.0049039	0.00445522	-2.98258	5	0.00776741	-1.32881e-05
2	1	0	0	0	9363.17	0.0203043	0.0198232	-2.46251	5	0.00693383	-4.88147e-05
2	1	0	1	0	9363.47	0.0356992	0.0352305	-2.0388	5	0.00624396	-7.18279e-05
2	1	0	1	0	9363.78	0.051094	0.0506789	-1.6751	5	0.00567475	-8.48921e-05
2	1	0	1	0	9364.09	0.0664945	0.0660382	-1.35646	5	0.00521003	-8.95783e-05
2	1	0	1	0	9364.4	0.0818938	0.081412	-1.07099	5	0.00483821	-8.71912e-05
2	1	0	0	0	9364.71	0.0972842	0.0968135	-0.815202	5	0.00454979	-7.89226e-05
2	1	0	0	0	9365.01	0.112683	0.112219	-0.582595	5	0.00433623	-6.53782e-05
2	1	0	0	0	9365.36	0.129929	0.129527	-0.346218	5	0.00417767	-4.48446e-05
2	1	0	0	0	9365.67	0.145323	0.144916	-0.154798	5	0.00410194	-2.24328e-05
2	1	0	0	0	9365.97	0.160725	0.160322	0.0230094	5	0.00408309	3.6889e-06
2	1	0	0	0	9366.28	0.176124	0.175723	0.186053	5	0.00411666	3.26937e-05
2	1	0	1	0	9366.59	0.191514	0.191152	0.33818	5	0.00419866	6.4644e-05
2	1	0	1	0	9366.9	0.206914	0.206581	0.480152	5	0.004326	9.91901e-05
2	1	0	1	0	9367.21	0.222315	0.22195	0.612292	5	0.00449541	0.000135898
2	1	0	0	0	9367.51	0.237709	0.237337	0.737121	5	0.00470424	0.000174946
2	1	0	0	0	9367.82	0.253105	0.252687	0.853338	5	0.00495024	0.000215628
2	1	0	0	0	9368.13	0.268504	0.26813	0.963943	5	0.00523119	0.000258462
2	1	0	0	0	9368.47	0.285444	0.284959	1.07957	5	0.00557831	0.000307633
2	1	0	1	0	9368.78	0.300834	0.300322	1.17811	5	0.00592677	0.000353812
2	1	0	1	0	9369.09	0.316234	0.315743	1.2731	5	0.00630526	0.000401973
2	1	0	1	0	9369.39	0.331634	0.331091	1.36301	5	0.00671225	0.000451281
2	1	0	0	0	9369.7	0.347024	0.346539	1.45004	5	0.00714613	0.000502496
2	1	0	0	0	9370.01	0.362424	0.361876	1.53402	5	0.00760672	0.000555124
2	1	0	0	0	9370.32	0.377823	0.377285	1.61474	5	0.0080926	0.000609216
2	1	0	1	0	9370.62	0.39322	0.392681	1.6938	5	0.00860288	0.000665121
2	1	0	1	0	9370.93	0.408613	0.408122	1.77043	5	0.00913721	0.000722551
2	1	0	1	0	9371.24	0.424015	0.423455	1.8454	5	0.00969493	0.000781444
2	1	0	1	0	9371.55	0.439414	0.43891	1.91966	5	0.0102757	0.000842559
2	1	0	0	0	9371.86	0.454804	0.454258	1.99235	5	0.0108787	0.00090504
2	1	0	0	0	9372.16	0.470204	0.469704	2.06515	5	0.0115043	0.000970008
2	1	0	0	0	9372.47	0.485604	0.485159	2.13709	5	0.0121523	0.00103683
2	1	0	1	0	9372.78	0.500999	0.500495	2.20806	5	0.0128221	0.00110512
2	1	0	1	0	9373.09	0.516394	0.51591	2.28052	5	0.0135141	0.00117654
2	1	0	1	0	9373.4	0.531794	0.53127	2.35218	5	0.0142284	0.00124964
2	1	0	1	0	9373.7	0.547194	0.546684	2.42523	5	0.014965	0.00132584
2	1	0	0	0	9374.01	0.562584	0.56206	2.49864	5	0.0157236	0.00140439
2	1	0	0	0	9374.32	0.577983	0.577493	2.57206	5	0.0165054	0.00148535
2	1	0	0	0	9374.63	0.593385	0.592868	2.64791	5	0.0173101	0.00156986
2	1	0	1	0	9374.94	0.608779	0.608292	2.72286	5	0.0181379	0.00165629
2	1	0	1	0	9375.24	0.624175	0.623643	2.79989	5	0.018989	0.00174613
2	1	0	1	0	9375.55	0.639574	0.639102	2.87874	5	0.0198646	0.00183981
2	1	0	1	0	9375.86	0.654974	0.654455	2.9573	5	0.0207642	0.00193542
2	1	0	0	0	9376.17	0.670364	0.669893	3.03819	5	0.0216878	0.00203526
2	1	0	0	0	9376.48	0.685763	0.685251	3.1192	5	0.022637	0.00213743
2	1	0	0	0	9376.78	0.701165	0.700659	3.20198	5	0.0236113	0.0022435
2	1	0	1	0	9377.09	0.716558	0.716087	3.28671	5	0.0246112	0.00235357
2	1	0	1	0	9377.4	0.731954	0.731474	3.37194	5	0.0256371	0.00246648
2	1	0	1	0	9377.71	0.747354	0.74689	3.45963	5	0.02669	0.00258397
2	1	0	0	0	9378.02	0.76275	0.762278	3.54862	5	0.0277698	0.00270504
2	1	0	0	0	9378.32	0.778143	0.777656	3.63856	5	0.0288771	0.00282955
2	1	0	0	0	9378.63	0.793545	0.793113	3.73174	5	0.0300132	0.00295969
2	0	0	1	0	9378.85	0.795082	0.794603	3.55832	5	0.0308368	0.00282745
2	0	0	0	0	9379.16	0.779686	0.779174	3.00879	5	0.0318433	0.00234437
2	0	0	0	0	9379.47	0.764293	0.763797	2.54436	5	0.0326952	0.00194338
2	0	0	0	0	9379.78	0.748891	0.748371	2.13269	5	0.033413	0.00159604
2	0	0	0	0	9380.09	0.733492	0.732973	1.76051	5	0.0340102	0.0012904
2	0	0	1	0	9380.39	0.718101	0.717652	1.42246	5	0.0344981	0.00102083
2	0	0	1	0	9380.7	0.702702	0.702212	1.11148	5	0.0348865	0.000780494
2	0	0	1	0	9381.01	0.687302	0.686794	0.825212	5	0.0351829	0.000566751
2	0	0	0	0	9381.32	0.671907	0.671461	0.561077	5	0.0353947	0.000376742
2	0	0	0	0	9381.66	0.654972	0.654533	0.291535	5	0.0355373	0.000190819
2	0	0	0	0	9381.96	0.639572	0.639162	0.0646537	5	0.0355906	4.13241e-05
2	0	0	0	0	9382.27	0.624172	0.623736	-0.147872	5	0.0355765	-9.22329e-05
2	0	0	1	0	9382.58	0.608782	0.608332	-0.345116	5	0.0354992	-0.000209945
2	0	0	1	0	9382.89	0.593383	0.592948	-0.529101	5	0.0353633	-0.000313729
2	0	0	1	0	9383.2	0.577981	0.577577	-0.702468	5	0.0351723	-0.000405729
2	0	0	0	0	9383.5	0.562587	0.562205	-0.863676	5	0.0349298	-0.000485564
2	0	0	0	0	9383.83	0.546421	0.545975	-1.02335	5	0.0346234	-0.000558724
2	0	0	0	0	9384.15	0.530252	0.529713	-1.1728	5	0.0342674	-0.000621249
2	0	0	1	0	9384.46	0.514857	0.514378	-1.30482	5	0.0338848	-0.000671169
2	0	0	1	0	9384.77	0.499463	0.498975	-1.43018	5	0.0334625	-0.000713622
2	0	0	1	0	9385.07	0.484061	0.483616	-1.54618	5	0.033003	-0.000747756
2	0	0	1	0	9385.38	0.468662	0.468155	-1.65624	5	0.0325087	-0.000775377
2	0	0	0	0	9385.69	0.453271	0.452745	-1.75992	5	0.0319818	-0.000796795
2	0	0	0	0	9386	0.437872	0.437358	-1.85663	5	0.0314238	-0.000812013
2	0	0	0	0	9386.31	0.422472	0.421963	-1.94846	5	0.0308369	-0.000822177
2	0	0	1	0	9386.61	0.407077	0.40656	-2.0332	5	0.0302228	-0.000826617
2	0	0	1	0	9386.92	0.391683	0.391205	-2.11412	5	0.0295833	-0.000827052
2	0	0	1	0	9387.23	0.376282	0.375755	-2.18945	5	0.0289194	-0.000822696
2	0	0	1	0	9387.54	0.360882	0.360428	-2.25878	5	0.0282334	-0.000814127
2	0	0	0	0	9387.85	0.345492	0.344916	-2.32411	5	0.0275271	-0.000801623
2	0	0	0	0	9388.15	0.330093	0.329638	-2.38347	5	0.0268011	-0.000785682
2	0	0	0	0	9388.46	0.314691	0.314197	-2.43895	5	0.0260576	-0.000766313
2	0	0	1	0	9388.77	0.299297	0.29881	-2.49038	5	0.0252978	-0.00074415
2	0	0	1	0	9389.08	0.283901	0.283444	-2.53852	5	0.0245226	-0.000719528
2	0	0	1	0	9389.39	0.268502	0.268047	-2.58479	5	0.0237328	-0.000692843
2	0	0	1	0	9389.69	0.253103	0.252694	-2.62875	5	0.022929	-0.000664271
2	0	0	0	0	9390	0.237712	0.237274	-2.67003	5	0.0221127	-0.000633528
2	0	0	0	0	9390.31	0.222313	0.221813	-2.71091	5	0.0212831	-0.000601317
2	0	0	0	0	9390.62	0.206911	0.206464	-2.74934	5	0.0204414	-0.000567642
2	0	0	1	0	9390.92	0.191518	0.191059	-2.78718	5	0.0195882	-0.000532516
2	0	0	1	0	9391.23	0.176122	0.175654	-2.82345	5	0.0187236	-0.00049595
2	0	0	1	0	9391.54	0.160722	0.160293	-2.85773	5	0.0178479	-0.000458073
2	0	0	0	0	9391.85	0.145326	0.144846	-2.89266	5	0.0169617	-0.000418991
2	0	0	0	0	9392.16	0.129933	0.12947	-2.92502	5	0.0160652	-0.000378703
2	0	0	0	0	9392.46	0.114532	0.114029	-2.95758	5	0.0151584	-0.000337251
2	0	0	0	0	9392.77	0.0991318	0.0986225	-2.98971	5	0.0142416	-0.000294853
2	0	0	1	0	9393.08	0.0837425	0.0832452	-3.02098	5	0.0133157	-0.000251482
2	0	0	1	0	9393.39	0.0683421	0.0678589	-3.05302	5	0.0123795	-0.000207174
2	0	0	1	0	9393.7	0.0529428	0.0524975	-3.08349	5	0.0114336	-0.000161875
2	0	0	0	0	9394	0.0375468	0.0370353	-3.11514	5	0.0104785	-0.00011537
2	0	0	0	0	9394.31	0.0221531	0.0216366	-3.1465	5	0.00951367	-6.80795e-05
2	0	0	0	0	9394.62	0.00675155	0.00629821	-3.17764	5	0.00853894	-2.00135e-05
2	1	0	0	1	9394.85	0.0049039	0.00446028	-2.98049	6	0.00782263	-1.32938e-05
2	1	0	0	1	9395.16	0.0203043	0.0198089	-2.46022	6	0.00698975	-4.87343e-05
2	1	0	1	1	9395.46	0.0356992	0.0352493	-2.03667	6	0.00630058	-7.17912e-05
2	1	0	1	1	9395.77	0.051094	0.0506754	-1.6731	6	0.00573202	-8.47848e-05
2	1	0	1	1	9396.08	0.0664945	0.065974	-1.35432	6	0.00526794	-8.93497e-05
2	1	0	1	1	9396.39	0.0818938	0.0814211	-1.06878	6	0.0048968	-8.70215e-05
2	1	0	0	1	9396.7	0.0972842	0.0967641	-0.813397	6	0.00460902	-7.87077e-05
2	1	0	0	1	9397	0.112683	0.112197	-0.580727	6	0.00439605	-6.51555e-05
2	1	0	0	1	9397.35	0.129929	0.129555	-0.344227	6	0.00423816	-4.45962e-05
2	1	0	0	1	9397.66	0.145323	0.144883	-0.152915	6	0.00416303	-2.21547e-05
2	1	0	0	1	9397.96	0.160725	0.160316	0.0248277	6	0.00414476	3.98029e-06
2	1	0	0	1	9398.27	0.176124	0.175715	0.187798	6	0.00417889	3.29989e-05
2	1	0	1	1	9398.58	0.191514	0.191103	0.339987	6	0.00426145	6.49724e-05
2	1	0	1	1	9398.89	0.206914	0.206513	0.481793	6	0.00438932	9.94967e-05
2	1	0	1	1	9399.2	0.222315	0.221897	0.61394	6	0.00455924	0.000136231
2	1	0	0	1	9399.5	0.237709	0.237349	0.738672	6	0.00476857	0.000175323
2	1	0	0	1	9399.81	0.253105	0.252741	0.85474	6	0.00501504	0.000216028
2	1	0	0	1	9400.12	0.268504	0.268089	0.965333	6	0.00529643	0.000258796
2	1	0	0	1	9400.46	0.285444	0.284927	1.08098	6	0.00564404	0.000307999
2	1	0	1	1	9400.77	0.300834	0.30031	1.17945	6	0.00599296	0.0003542
2	1	0	1	1	9401.08	0.316234	0.315685	1.27384	6	0.00637179	0.000402133
2	1	0	1	1	9401.38	0.331634	0.331127	1.36393	6	0.00677907	0.000451635
2	1	0	0	1	9401.69	0.347024	0.346527	1.45082	6	0.00721323	0.00050275
2	1	0	0	1	9402	0.362424	0.361905	1.53459	6	0.00767402	0.000555375
2	1	0	0	1	9402.31	0.377823	0.377302	1.6153	6	0.00816007	0.000609455
2	1	0	1	1	9402.61	0.39322	0.392681	1.69435	6	0.00867053	0.000665339
2	1	0	1	1	9402.92	0.408613	0.408076	1.77063	6	0.00920497	0.000722554
2	1	0	1	1	9403.23	0.424015	0.423506	1.84549	6	0.00976273	0.000781577
2	1	0	1	1	9403.54	0.439414	0.43892	1.91997	6	0.0103436	0.000842712
2	1	0	0	1	9403.85	0.454804	0.454242	1.99244	6	0.0109466	0.000905048
2	1	0	0	1	9404.15	0.470204	0.469707	2.06529	6	0.0115723	0.000970081
2	1	0	0	1	9404.46	0.485604	0.485092	2.13704	6	0.0122203	0.00103666
2	1	0	1	1	9404.77	0.500999	0.500419	2.20806	6	0.0128901	0.00110495
2	1	0	1	1	9405.08	0.516394	0.515911	2.28032	6	0.013582	0.00117644
2	1	0	1	1	9405.39	0.531794	0.531291	2.3519	6	0.0142963	0.00124954
2	1	0	1	1	9405.69	0.547194	0.546714	2.42477	6	0.0150328	0.00132565
2	1	0	0	1	9406	0.562584	0.562126	2.49842	6	0.0157913	0.00140443
2	1	0	0	1	9406.31	0.577983	0.577483	2.57162	6	0.0165729	0.00148507
2	1	0	0	1	9406.62	0.593385	0.592917	2.6474	6	0.0173775	0.00156969
2	1	0	1	1	9406.93	0.608779	0.60825	2.72222	6	0.0182051	0.00165579
2	1	0	1	1	9407.23	0.624175	0.623648	2.79922	6	0.019056	0.00174573
2	1	0	1	1	9407.54	0.639574	0.639052	2.8778	6	0.0199313	0.00183906
2	1	0	1	1	9407.85	0.654974	0.654451	2.95644	6	0.0208307	0.00193485
2	1	0	0	1	9408.16	0.670364	0.669872	3.03716	6	0.021754	0.00203451
2	1	0	0	1	9408.47	0.685763	0.685256	3.11808	6	0.0227029	0.00213668
2	1	0	0	1	9408.77	0.701165	0.700642	3.2009	6	0.0236768	0.00224269
2	1	0	1	1	9409.08	0.716558	0.71605	3.28532	6	0.0246763	0.00235246
2	1	0	1	1	9409.39	0.731954	0.731464	3.37077	6	0.0257019	0.00246559
2	1	0	1	1	9409.7	0.747354	0.746882	3.45833	6	0.0267544	0.00258297
2	1	0	0	1	9410.01	0.76275	0.762277	3.54719	6	0.0278339	0.00270394
2	1	0	0	1	9410.31	0.778143	0.777627	3.63721	6	0.0289408	0.0028284
2	1	0	0	1	9410.62	0.793545	0.793043	3.7306	6	0.0300764	0.00295853
2	0	0	1	1	9410.84	0.795082	0.794553	3.55698	6	0.0308998	0.00282621
2	0	0	0	1	9411.15	0.779686	0.77919	3.00738	6	0.0319059	0.00234332
2	0	0	0	1	9411.46	0.764293	0.763826	2.54282	6	0.0327573	0.00194227
2	0	0	0	1	9411.77	0.748891	0.748421	2.13109	6	0.0334746	0.00159495
2	0	0	0	1	9412.08	0.733492	0.732951	1.75902	6	0.0340714	0.00128928
2	0	0	1	1	9412.38	0.718101	0.717627	1.421	6	0.0345588	0.00101975
2	0	0	1	1	9412.69	0.702702	0.70223	1.11002	6	0.0349467	0.000779492
2	0	0	1	1	9413	0.687302	0.6868	0.823638	6	0.0352427	0.000565675
2	0	0	0	1	9413.31	0.671907	0.671433	0.559495	6	0.035454	0.000375663
2	0	0	0	1	9413.65	0.654972	0.654561	0.290016	6	0.0355962	0.000189833
2	0	0	0	1	9413.95	0.639572	0.639138	0.063164	6	0.0356491	4.03705e-05
2	0	0	0	1	9414.26	0.624172	0.623736	-0.149332	6	0.0356345	-9.31436e-05
2	0	0	1	1	9414.57	0.608782	0.608325	-0.346493	6	0.0355568	-0.00021078
2	0	0	1	1	9414.88	0.593383	0.592947	-0.530456	6	0.0354204	-0.000314532
2	0	0	1	1	9415.19	0.577981	0.577569	-0.703826	6	0.035229	-0.000406508
2	0	0	0	1	9415.49	0.562587	0.562167	-0.865007	6	0.0349861	-0.000486279
2	0	0	0	1	9415.82	0.546422	0.546025	-1.02471	6	0.0346791	-0.000559518
2	0	0	0	1	9416.14	0.530252	0.529738	-1.17412	6	0.0343225	-0.000621976
2	0	0	1	1	9416.45	0.514857	0.51439	-1.30593	6	0.0339395	-0.000671756
2	0	0	1	1	9416.76	0.499463	0.498967	-1.43104	6	0.033517	-0.000714044
2	0	0	1	1	9417.06	0.484061	0.483564	-1.54751	6	0.0330571	-0.000748322
2	0	0	1	1	9417.37	0.468662	0.468206	-1.65738	6	0.0325625	-0.000775994
2	0	0	0	1	9417.68	0.453271	0.45273	-1.76077	6	0.0320353	-0.000797152
2	0	0	0	1	9417.99	0.437872	0.437386	-1.85727	6	0.0314771	-0.000812343
2	0	0	0	1	9418.3	0.422472	0.421958	-1.94934	6	0.0308898	-0.00082254
2	0	0	1	1	9418.6	0.407077	0.406592	-2.03418	6	0.0302755	-0.000827083
2	0	0	1	1	9418.91	0.391683	0.391191	-2.11473	6	0.0296357	-0.000827261
2	0	0	1	1	9419.22	0.376282	0.375682	-2.19018	6	0.0289716	-0.000822809
2	0	0	1	1	9419.53	0.360882	0.360406	-2.25909	6	0.0282854	-0.000814191
2	0	0	0	1	9419.84	0.345492	0.344971	-2.3242	6	0.027579	-0.000801781
2	0	0	0	1	9420.14	0.330093	0.329577	-2.38355	6	0.026853	-0.000785562
2	0	0	0	1	9420.45	0.314691	0.314221	-2.43894	6	0.0261094	-0.000766365
2	0	0	1	1	9420.76	0.299297	0.298776	-2.49024	6	0.0253497	-0.000744023
2	0	0	1	1	9421.07	0.283901	0.283474	-2.53836	6	0.0245746	-0.000719559
2	0	0	1	1	9421.38	0.268502	0.268105	-2.58447	6	0.0237848	-0.00069291
2	0	0	1	1	9421.68	0.253103	0.252626	-2.6281	6	0.0229812	-0.000663926
2	0	0	0	1	9421.99	0.237712	0.237261	-2.66954	6	0.022165	-0.000633378
2	0	0	0	1	9422.3	0.222313	0.221824	-2.71032	6	0.0213356	-0.000601214
2	0	0	0	1	9422.61	0.206911	0.20647	-2.74858	6	0.020494	-0.000567499
2	0	0	1	1	9422.91	0.191518	0.191033	-2.78625	6	0.0196411	-0.000532265
2	0	0	1	1	9423.22	0.176122	0.175675	-2.82252	6	0.0187768	-0.000495846
2	0	0	1	1	9423.53	0.160722	0.160227	-2.85666	6	0.0179014	-0.000457714
2	0	0	0	1	9423.84	0.145326	0.144845	-2.8915	6	0.0170156	-0.00041882
2	0	0	0	1	9424.15	0.129933	0.129469	-2.92372	6	0.0161194	-0.000378531
2	0	0	0	1	9424.45	0.114532	0.114122	-2.95617	6	0.0152131	-0.000337363
2	0	0	0	1	9424.76	0.0991318	0.098633	-2.98823	6	0.0142967	-0.000294738
2	0	0	1	1	9425.07	0.0837425	0.0832728	-3.01934	6	0.0133713	-0.000251429
2	0	0	1	1	9425.38	0.0683421	0.0678716	-3.05132	6	0.0124357	-0.000207098
2	0	0	1	1	9425.69	0.0529428	0.0524644	-3.08179	6	0.0114903	-0.000161684
2	0	0	0	1	9425.99	0.0375468	0.0370905	-3.11324	6	0.0105357	-0.000115471
2	0	0	0	1	9426.3	0.0221531	0.0216758	-3.1447	6	0.0095714	-6.81639e-05
2	0	0	0	1	9426.61	0.00675155	0.00628635	-3.17576	6	0.00859721	-1.9964e-05
2	0	0	1	1	9426.74	-0.000131913	-0.0003069	-3.18928	6	0.0081765	9.7879e-07