File: Input_data/[1] JJ1-53 1st SC total meas_08_CV.mpt
EC-Lab ASCII FILE
Nb header lines : 56

Cyclic Voltammetry

Run on channel : 1 (SN 31418)
User :
CE vs. WE compliance from -10 V to 10 V
Electrode connection : standard
Ewe ctrl range : min = -10.00 V, max = 10.00 V
Safety Limits :
	Do not start on E overload
Acquisition started on : 01/25/2023 15:21:28
Technique started on : 01/25/2023 16:59:23
Saved on :
	File : [1] JJ1-53 1st SC total meas_08_CV.mpr
	Directory : C:\Users\Potentiostat\Documents\EC-Lab\Data\Supercapacitor until 2021 02\(230125) SC JJ1-53 54 lower CB better viscosity\
	Host : 127.0.0.1
Device : SP-150 (SN 1275)
Address : USB
EC-Lab for windows v11.16 (software)
Internet server v11.16 (firmware)
Command interpretor v11.16 (firmware)
Electrode material : Au/Pd
Initial state :
Electrolyte : NaCl (0.2M)
Comments : Fe(CN)63-/Fe(CN)64- 5.10-3 M
Reference electrode : SCE Saturated Calomel Electrode (0.241 V)
Electrode surface area : 0.001 cm²
Characteristic mass : 0.001 g
Equivalent Weight : 0.000 g/eq.
Density : 0.000 g/cm3
Cycle Definition : Charge/Discharge alternance
Ei (V)              0.000
vs.                 Ref
dE/dt               5.000
dE/dt unit          mV/s
E1 (V)              0.800
vs.                 Ref
Step percent        50
N                   10
E range min (V)     -10.000
E range max (V)     10.000
I Range             Auto
I Range min         Unset
I Range max         Unset
I Range init        Unset
Bandwidth           7
E2 (V)              0.000
vs.                 Ref
nc cycles           5
Reverse Scan        0
Ef (V)              0.000
vs.                 Eoc

mode	ox/red	error	control changes	counter inc.	time/s	control/V	Ewe/V	<I>/mA	cycle number	(Q-Qo)/C	P/W
2	1	0	1	0	5875.66	0.000439855	0.000151401	-0.276929	1	0.0000000E+000	-4.19274e-08
2	1	0	1	0	5878.49	0.0146053	0.0142023	-0.0512762	1	-0.000383268	-7.28242e-07
2	1	0	0	0	5881.6	0.0301563	0.0297958	0.0523529	1	-0.00035865	1.55989e-06
2	1	0	1	0	5884.74	0.0458613	0.0454437	0.115896	1	-7.99185e-05	5.26676e-06
2	1	0	0	0	5887.82	0.0612581	0.0608836	0.159239	1	0.000354016	9.69502e-06
2	1	0	1	0	5890.9	0.0766551	0.0763044	0.192705	1	0.000904619	1.47042e-05
2	1	0	0	0	5893.98	0.0920525	0.0916494	0.21895	1	0.00154676	2.00667e-05
2	1	0	1	0	5897.06	0.10745	0.107112	0.240373	1	0.00226152	2.57468e-05
2	1	0	0	0	5900.14	0.122847	0.122497	0.259231	1	0.00303878	3.17549e-05
2	1	0	1	0	5903.22	0.138244	0.137833	0.275166	1	0.0038688	3.79269e-05
2	1	0	0	0	5906.3	0.153641	0.153216	0.290152	1	0.00474572	4.44559e-05
2	1	0	0	0	5909.37	0.169038	0.16865	0.303184	1	0.00566608	5.1132e-05
2	1	0	1	0	5912.45	0.184435	0.184052	0.314911	1	0.00662412	5.79598e-05
2	1	0	0	0	5915.53	0.199832	0.199451	0.326811	1	0.0076191	6.51828e-05
2	1	0	1	0	5918.61	0.215229	0.214794	0.337244	1	0.0086485	7.24379e-05
2	1	0	0	0	5921.69	0.230626	0.23022	0.348242	1	0.00971093	8.01722e-05
2	1	0	1	0	5924.77	0.246023	0.245711	0.358828	1	0.0108068	8.81681e-05
2	1	0	0	0	5927.85	0.26142	0.260966	0.368896	1	0.0119339	9.62694e-05
2	1	0	1	0	5930.93	0.276818	0.276412	0.37957	1	0.0130927	0.000104918
2	1	0	0	0	5934.01	0.292215	0.29182	0.38925	1	0.0142833	0.000113591
2	1	0	1	0	5937.09	0.307612	0.307193	0.399686	1	0.0155045	0.000122781
2	1	0	0	0	5940.17	0.323009	0.322587	0.409849	1	0.0167575	0.000132212
2	1	0	0	0	5943.25	0.338406	0.337988	0.42017	1	0.018042	0.000142012
2	1	0	1	0	5946.33	0.353803	0.353421	0.430983	1	0.019359	0.000152319
2	1	0	0	0	5949.41	0.3692	0.368734	0.441663	1	0.0207094	0.000162856
2	1	0	1	0	5952.49	0.384597	0.384165	0.452804	1	0.0220929	0.000173951
2	1	0	0	0	5955.57	0.399994	0.399552	0.464731	1	0.0235125	0.000185685
2	1	0	1	0	5958.65	0.415391	0.414948	0.476735	1	0.0249682	0.00019782
2	1	0	0	0	5961.72	0.430788	0.4304	0.49009	1	0.0264629	0.000210935
2	1	0	1	0	5964.8	0.446186	0.445765	0.503817	1	0.0279997	0.000224584
2	1	0	0	0	5967.88	0.461583	0.461143	0.518186	1	0.0295795	0.000238958
2	1	0	1	0	5970.96	0.47698	0.476585	0.534494	1	0.0312076	0.000254731
2	1	0	0	0	5974.04	0.492377	0.491936	0.550692	1	0.0328851	0.000270905
2	1	0	0	0	5977.12	0.507774	0.507311	0.568757	1	0.0346154	0.000288537
2	1	0	1	0	5980.2	0.523171	0.522769	0.587589	1	0.0364026	0.000307173
2	1	0	0	0	5983.28	0.538568	0.538137	0.606924	1	0.0382481	0.000326608
2	1	0	1	0	5986.36	0.553965	0.553585	0.627974	1	0.0401562	0.000347637
2	1	0	0	0	5989.44	0.569362	0.568927	0.648809	1	0.042129	0.000369125
2	1	0	1	0	5992.52	0.584759	0.584363	0.671502	1	0.044169	0.000392401
2	1	0	0	0	5995.6	0.600156	0.599732	0.69484	1	0.0462802	0.000416717
2	1	0	1	0	5998.68	0.615553	0.615086	0.71833	1	0.048463	0.000441834
2	1	0	0	0	6001.76	0.630951	0.630575	0.743402	1	0.0507203	0.000468771
2	1	0	1	0	6004.84	0.646348	0.645919	0.767044	1	0.0530532	0.000495449
2	1	0	0	0	6007.92	0.661745	0.661343	0.791533	1	0.0554597	0.000523475
2	1	0	0	0	6011	0.677142	0.676727	0.815798	1	0.057942	0.000552072
2	1	0	1	0	6014.08	0.692539	0.692141	0.839472	1	0.0604976	0.000581033
2	1	0	0	0	6017.15	0.707936	0.707572	0.863191	1	0.0631261	0.00061077
2	1	0	1	0	6020.23	0.723333	0.722921	0.886463	1	0.0658275	0.000640843
2	1	0	0	0	6023.31	0.73873	0.738275	0.909469	1	0.0685994	0.000671439
2	1	0	1	0	6026.39	0.754127	0.753689	0.933331	1	0.0714445	0.000703441
2	1	0	0	0	6029.47	0.769524	0.769083	0.95705	1	0.0743618	0.00073605
2	1	0	1	0	6032.55	0.784921	0.784489	0.982645	1	0.0773542	0.000770874
2	1	0	0	0	6035.42	0.799241	0.798885	1.00686	1	0.0802088	0.000804367
2	0	0	1	0	6037.73	0.788925	0.788505	0.67078	1	0.0821118	0.000528913
2	0	0	0	0	6040.8	0.773528	0.773149	0.39291	1	0.0837059	0.000303778
2	0	0	1	0	6043.88	0.75813	0.757747	0.206425	1	0.0846036	0.000156418
2	0	0	0	0	6046.96	0.742733	0.742321	0.0682433	1	0.0850087	5.06584e-05
2	0	0	1	0	6050.17	0.72672	0.726306	-0.0414998	1	0.0850359	-3.01415e-05
2	0	0	0	0	6053.31	0.711015	0.710602	-0.126617	1	0.0847591	-8.99739e-05
2	0	0	1	0	6056.39	0.695618	0.695209	-0.195058	1	0.084252	-0.000135606
2	0	0	0	0	6059.47	0.680221	0.679822	-0.250933	1	0.0835551	-0.00017059
2	0	0	0	0	6062.55	0.664824	0.664394	-0.298389	1	0.0827002	-0.000198248
2	0	0	1	0	6065.63	0.649427	0.649004	-0.338163	1	0.0817114	-0.00021947
2	0	0	0	0	6068.7	0.63403	0.633624	-0.371698	1	0.0806104	-0.000235517
2	0	0	1	0	6071.78	0.618633	0.618192	-0.4018	1	0.0794109	-0.00024839
2	0	0	0	0	6074.86	0.603236	0.602869	-0.426583	1	0.0781273	-0.000257174
2	0	0	1	0	6077.94	0.587839	0.587405	-0.449185	1	0.0767708	-0.000263854
2	0	0	0	0	6081.02	0.572442	0.572006	-0.469147	1	0.0753486	-0.000268355
2	0	0	1	0	6084.1	0.557045	0.556659	-0.4865	1	0.07387	-0.000270815
2	0	0	0	0	6087.18	0.541648	0.541204	-0.502755	1	0.0723397	-0.000272093
2	0	0	1	0	6090.26	0.52625	0.525824	-0.516265	1	0.0707634	-0.000271465
2	0	0	0	0	6093.34	0.510853	0.510423	-0.529259	1	0.0691465	-0.000270146
2	0	0	0	0	6096.42	0.495456	0.495022	-0.540647	1	0.0674916	-0.000267633
2	0	0	1	0	6099.5	0.480059	0.479647	-0.550158	1	0.0658048	-0.000263882
2	0	0	0	0	6102.58	0.464662	0.46421	-0.558026	1	0.0640915	-0.000259042
2	0	0	1	0	6105.66	0.449265	0.448791	-0.56233	1	0.0623588	-0.000252369
2	0	0	0	0	6108.74	0.433868	0.433451	-0.563895	1	0.0606178	-0.000244421
2	0	0	1	0	6111.82	0.418471	0.418048	-0.563114	1	0.0588752	-0.000235409
2	0	0	0	0	6114.9	0.403074	0.402688	-0.560154	1	0.0571393	-0.000225567
2	0	0	1	0	6117.98	0.387677	0.387266	-0.557126	1	0.0554131	-0.000215756
2	0	0	0	0	6121.05	0.372279	0.371851	-0.554113	1	0.053696	-0.000206047
2	0	0	1	0	6124.13	0.356882	0.356453	-0.552111	1	0.0519871	-0.000196802
2	0	0	1	0	6127.21	0.341485	0.34109	-0.552589	1	0.0502795	-0.000188483
2	0	0	0	0	6130.29	0.326088	0.325655	-0.553988	1	0.0485695	-0.000180409
2	0	0	1	0	6133.37	0.310691	0.310314	-0.557116	1	0.0468523	-0.000172881
2	0	0	0	0	6136.45	0.295294	0.294904	-0.56106	1	0.0451243	-0.000165459
2	0	0	1	0	6139.53	0.279897	0.2795	-0.565029	1	0.0433844	-0.000157926
2	0	0	0	0	6142.61	0.2645	0.264119	-0.569828	1	0.0416305	-0.000150502
2	0	0	1	0	6145.69	0.249103	0.24874	-0.57341	1	0.0398635	-0.00014263
2	0	0	0	0	6148.77	0.233706	0.23332	-0.577447	1	0.0380846	-0.00013473
2	0	0	1	0	6151.85	0.218309	0.217903	-0.580846	1	0.0362937	-0.000126568
2	0	0	0	0	6154.93	0.202912	0.202489	-0.583277	1	0.0344947	-0.000118108
2	0	0	1	0	6158.01	0.187514	0.187086	-0.585577	1	0.0326884	-0.000109553
2	0	0	1	0	6161.09	0.172117	0.171754	-0.586419	1	0.030877	-0.00010072
2	0	0	0	0	6164.17	0.15672	0.156345	-0.587331	1	0.0290634	-9.18262e-05
2	0	0	1	0	6167.25	0.141323	0.140891	-0.587655	1	0.0272472	-8.27954e-05
2	0	0	0	0	6170.33	0.125926	0.125514	-0.587377	1	0.0254316	-7.3724e-05
2	0	0	1	0	6173.4	0.110529	0.110128	-0.587305	1	0.0236166	-6.46788e-05
2	0	0	0	0	6176.48	0.0951324	0.0947582	-0.586833	1	0.0218021	-5.56073e-05
2	0	0	1	0	6179.56	0.0797348	0.0793601	-0.586466	1	0.0199895	-4.6542e-05
2	0	0	0	0	6182.64	0.0643378	0.0639073	-0.58672	1	0.0181764	-3.74957e-05
2	0	0	1	0	6185.72	0.0489407	0.0485012	-0.586746	1	0.0163633	-2.84579e-05
2	0	0	0	0	6188.8	0.0335436	0.0331459	-0.587881	1	0.0145488	-1.94859e-05
2	0	0	1	0	6191.88	0.0181465	0.0177737	-0.58891	1	0.0127308	-1.04671e-05
2	0	0	1	0	6194.96	0.00274908	0.00241286	-0.59011	1	0.0109093	-1.42386e-06
2	1	0	0	1	6197.06	0.00798409	0.00757722	-0.376717	2	0.00987303	-2.85446e-06
2	1	0	1	1	6200.13	0.0233811	0.0230003	-0.176382	2	0.00906704	-4.05682e-06
2	1	0	0	1	6203.21	0.0387786	0.0384334	-0.0639163	2	0.00871781	-2.45652e-06
2	1	0	1	1	6206.36	0.0544836	0.0541005	0.0125791	2	0.00865217	6.80533e-07
2	1	0	0	1	6209.43	0.0698807	0.0694525	0.0681819	2	0.00878742	4.7354e-06
2	1	0	1	1	6212.58	0.0855857	0.0852024	0.112213	2	0.0090811	9.56086e-06
2	1	0	0	1	6215.65	0.100983	0.100516	0.146848	2	0.00948839	1.47606e-05
2	1	0	1	1	6218.73	0.11638	0.115963	0.175963	2	0.0099932	2.04051e-05
2	1	0	1	1	6221.81	0.131777	0.131406	0.200528	2	0.0105808	2.63507e-05
2	1	0	0	1	6224.89	0.147174	0.146738	0.221757	2	0.0112381	3.25402e-05
2	1	0	1	1	6227.97	0.162571	0.162147	0.241224	2	0.0119588	3.91137e-05
2	1	0	0	1	6231.05	0.177968	0.177525	0.258156	2	0.0127348	4.58291e-05
2	1	0	1	1	6234.13	0.193365	0.19299	0.274376	2	0.0135612	5.29518e-05
2	1	0	0	1	6237.21	0.208762	0.208355	0.289085	2	0.0144354	6.02323e-05
2	1	0	1	1	6240.29	0.22416	0.223758	0.30264	2	0.0153529	6.77181e-05
2	1	0	0	1	6243.37	0.239557	0.239145	0.316278	2	0.0163129	7.56363e-05
2	1	0	1	1	6246.45	0.254954	0.254517	0.328686	2	0.017313	8.36562e-05
2	1	0	0	1	6249.53	0.270351	0.269928	0.341541	2	0.0183519	9.21913e-05
2	1	0	1	1	6252.61	0.285748	0.285324	0.353887	2	0.0194297	0.000100973
2	1	0	1	1	6255.69	0.301145	0.300771	0.365711	2	0.0205442	0.000109995
2	1	0	0	1	6258.77	0.316542	0.316099	0.3778	2	0.0216955	0.000119422
2	1	0	1	1	6261.85	0.331939	0.331514	0.3891	2	0.0228832	0.000128992
2	1	0	0	1	6264.93	0.347336	0.34688	0.401043	2	0.0241064	0.000139114
2	1	0	1	1	6268.01	0.362733	0.362351	0.41281	2	0.0253667	0.000149582
2	1	0	0	1	6271.08	0.37813	0.377716	0.424471	2	0.0266626	0.000160329
2	1	0	1	1	6274.16	0.393527	0.393097	0.43691	2	0.0279955	0.000171748
2	1	0	0	1	6277.24	0.408925	0.408504	0.449087	2	0.0293666	0.000183454
2	1	0	1	1	6280.32	0.424322	0.423882	0.462248	2	0.0307761	0.000195939
2	1	0	0	1	6283.4	0.439719	0.439313	0.476134	2	0.0322278	0.000209172
2	1	0	1	1	6286.48	0.455116	0.45466	0.490731	2	0.0337227	0.000223116
2	1	0	1	1	6289.56	0.470513	0.470114	0.507088	2	0.0352649	0.00023839
2	1	0	0	1	6292.64	0.48591	0.485485	0.523531	2	0.0368582	0.000254167
2	1	0	1	1	6295.72	0.501307	0.500889	0.540946	2	0.0385035	0.000270954
2	1	0	0	1	6298.8	0.516704	0.516273	0.560102	2	0.0402059	0.000289166
2	1	0	1	1	6301.88	0.532101	0.531649	0.579422	2	0.0419673	0.000308049
2	1	0	0	1	6304.96	0.547498	0.547092	0.600486	2	0.0437906	0.000328521
2	1	0	1	1	6308.04	0.562895	0.56252	0.621898	2	0.0456794	0.00034983
2	1	0	0	1	6311.12	0.578293	0.577867	0.643359	2	0.0476336	0.000371776
2	1	0	1	1	6314.2	0.59369	0.593271	0.666348	2	0.049657	0.000395325
2	1	0	0	1	6317.28	0.609087	0.608609	0.688521	2	0.0517502	0.000419041
2	1	0	0	1	6320.36	0.624484	0.624027	0.711764	2	0.0539136	0.00044416
2	1	0	1	1	6323.43	0.639881	0.639463	0.735377	2	0.0561502	0.000470247
2	1	0	0	1	6326.51	0.655278	0.65483	0.758061	2	0.0584566	0.000496401
2	1	0	1	1	6329.59	0.670675	0.670253	0.781341	2	0.0608339	0.000523696
2	1	0	0	1	6332.67	0.686072	0.685628	0.80328	2	0.0632811	0.000550751
2	1	0	1	1	6335.75	0.701469	0.701069	0.825965	2	0.0657967	0.000579058
2	1	0	0	1	6338.83	0.716866	0.716448	0.848389	2	0.0683823	0.000607827
2	1	0	1	1	6341.91	0.732263	0.731806	0.870696	2	0.0710361	0.00063718
2	1	0	0	1	6344.99	0.74766	0.747271	0.89414	2	0.0737602	0.000668165
2	1	0	1	1	6348.07	0.763058	0.762659	0.91808	2	0.0765578	0.000700182
2	1	0	0	1	6351.15	0.778455	0.778039	0.943317	2	0.0794304	0.000733937
2	1	0	0	1	6354.23	0.793852	0.793441	0.971458	2	0.0823861	0.000770795
2	0	0	0	1	6356.38	0.795084	0.794698	0.808623	2	0.0844002	0.000642611
2	0	0	1	1	6359.46	0.779686	0.779229	0.468085	2	0.0863045	0.000364745
2	0	0	0	1	6362.54	0.764289	0.763837	0.255935	2	0.087389	0.000195493
2	0	0	1	1	6365.62	0.748892	0.748508	0.10386	2	0.087923	7.77399e-05
2	0	0	0	1	6368.76	0.733187	0.732765	-0.0137209	2	0.0880475	-1.00542e-05
2	0	0	0	1	6371.91	0.717482	0.717126	-0.105737	2	0.0878464	-7.5827e-05
2	0	0	1	1	6374.98	0.702085	0.701669	-0.1788	2	0.087397	-0.000125459
2	0	0	0	1	6378.06	0.686688	0.686249	-0.238389	2	0.0867442	-0.000163594
2	0	0	1	1	6381.14	0.671291	0.670894	-0.28775	2	0.0859248	-0.00019305
2	0	0	0	1	6384.22	0.655894	0.65547	-0.32986	2	0.0849642	-0.000216213
2	0	0	1	1	6387.3	0.640497	0.640113	-0.36518	2	0.0838856	-0.000233756
2	0	0	0	1	6390.38	0.6251	0.624645	-0.396641	2	0.0827052	-0.000247759
2	0	0	1	1	6393.46	0.609703	0.609291	-0.422906	2	0.0814356	-0.000257673
2	0	0	0	1	6396.54	0.594306	0.593899	-0.445665	2	0.0800909	-0.00026468
2	0	0	1	1	6399.62	0.578908	0.578484	-0.46653	2	0.0786787	-0.000269881
2	0	0	0	1	6402.7	0.563511	0.563118	-0.484024	2	0.0772076	-0.000272562
2	0	0	0	1	6405.78	0.548114	0.54767	-0.500517	2	0.0756842	-0.000274118
2	0	0	1	1	6408.86	0.532717	0.532326	-0.515224	2	0.0741125	-0.000274267
2	0	0	0	1	6411.94	0.51732	0.516895	-0.528215	2	0.072499	-0.000273031
2	0	0	1	1	6415.02	0.501923	0.50151	-0.540559	2	0.0708464	-0.000271096
2	0	0	0	1	6418.1	0.486526	0.486105	-0.550218	2	0.0691596	-0.000267464
2	0	0	1	1	6421.18	0.471129	0.470705	-0.558726	2	0.0674448	-0.000262995
2	0	0	0	1	6424.26	0.455732	0.455317	-0.564543	2	0.0657072	-0.000257046
2	0	0	1	1	6427.33	0.440335	0.439906	-0.566931	2	0.0639577	-0.000249396
2	0	0	0	1	6430.41	0.424938	0.42449	-0.566998	2	0.0622047	-0.000240685
2	0	0	1	1	6433.49	0.40954	0.40914	-0.564384	2	0.0604556	-0.000230912
2	0	0	0	1	6436.57	0.394143	0.393776	-0.560901	2	0.0587167	-0.000220869
2	0	0	0	1	6439.65	0.378746	0.378319	-0.557811	2	0.0569875	-0.00021103
2	0	0	1	1	6442.73	0.363349	0.362934	-0.555534	2	0.0552675	-0.000201622
2	0	0	0	1	6445.81	0.347952	0.347519	-0.555321	2	0.0535516	-0.000192984
2	0	0	1	1	6448.89	0.332555	0.33214	-0.556435	2	0.0518336	-0.000184814
2	0	0	0	1	6451.97	0.317158	0.316806	-0.558619	2	0.0501108	-0.000176974
2	0	0	1	1	6455.05	0.301761	0.301368	-0.56218	2	0.0483783	-0.000169423
2	0	0	0	1	6458.13	0.286364	0.285999	-0.565929	2	0.0466347	-0.000161855
2	0	0	1	1	6461.21	0.270967	0.270596	-0.570634	2	0.0448784	-0.000154411
2	0	0	0	1	6464.29	0.25557	0.255133	-0.574988	2	0.043108	-0.000146698
2	0	0	1	1	6467.37	0.240173	0.239811	-0.578579	2	0.0413257	-0.00013875
2	0	0	0	1	6470.45	0.224775	0.224327	-0.582609	2	0.0395312	-0.000130695
2	0	0	0	1	6473.53	0.209378	0.208984	-0.585101	2	0.0377263	-0.000122277
2	0	0	1	1	6476.61	0.193981	0.193637	-0.5877	2	0.0359136	-0.0001138
2	0	0	0	1	6479.68	0.178584	0.178185	-0.58949	2	0.0340937	-0.000105038
2	0	0	1	1	6482.76	0.163187	0.162786	-0.59033	2	0.0322706	-9.60974e-05
2	0	0	0	1	6485.84	0.14779	0.147375	-0.591317	2	0.0304448	-8.71452e-05
2	0	0	1	1	6488.92	0.132393	0.132015	-0.590699	2	0.028618	-7.7981e-05
2	0	0	0	1	6492	0.116996	0.116576	-0.590629	2	0.0267928	-6.88532e-05
2	0	0	1	1	6495.08	0.101599	0.101207	-0.590184	2	0.0249678	-5.97307e-05
2	0	0	0	1	6498.16	0.0862016	0.0857891	-0.589639	2	0.0231448	-5.05846e-05
2	0	0	1	1	6501.24	0.0708045	0.0704286	-0.589655	2	0.0213228	-4.15286e-05
2	0	0	1	1	6504.32	0.055407	0.0550039	-0.589467	2	0.0195005	-3.2423e-05
2	0	0	0	1	6507.4	0.04001	0.0396403	-0.589783	2	0.0176788	-2.33792e-05
2	0	0	1	1	6510.48	0.0246132	0.0242238	-0.590816	2	0.0158543	-1.43118e-05
2	0	0	0	1	6513.56	0.00921619	0.00888881	-0.591956	2	0.0140269	-5.26178e-06
2	1	0	1	0	6515.71	0.00182559	0.00144462	-0.529804	3	0.0127652	-7.65364e-07
2	1	0	0	0	6518.79	0.0172227	0.0167882	-0.242027	3	0.0116595	-4.06319e-06
2	1	0	1	0	6521.87	0.0326198	0.0322378	-0.104562	3	0.0111527	-3.37086e-06
2	1	0	0	0	6525.01	0.0483248	0.047959	-0.0155019	3	0.0109814	-7.43457e-07
2	1	0	1	0	6528.09	0.0637219	0.063345	0.0465752	3	0.011041	2.95031e-06
2	1	0	0	0	6531.2	0.0792729	0.0788933	0.0950711	3	0.0112717	7.50047e-06
2	1	0	0	0	6534.31	0.0948244	0.0944495	0.132694	3	0.0116351	1.25329e-05
2	1	0	1	0	6537.39	0.110221	0.109845	0.164052	3	0.0121002	1.80203e-05
2	1	0	0	0	6540.47	0.125618	0.125226	0.19033	3	0.0126541	2.38343e-05
2	1	0	1	0	6543.55	0.141015	0.140582	0.212898	3	0.0132825	2.99295e-05
2	1	0	0	0	6546.63	0.156412	0.156027	0.233378	3	0.0139768	3.64131e-05
2	1	0	1	0	6549.71	0.171809	0.171432	0.25103	3	0.0147299	4.30345e-05
2	1	0	0	0	6552.79	0.187207	0.18679	0.267293	3	0.0155348	4.99278e-05
2	1	0	1	0	6555.87	0.202604	0.202197	0.282724	3	0.016389	5.71658e-05
2	1	0	0	0	6558.95	0.218001	0.217619	0.296763	3	0.0172879	6.45812e-05
2	1	0	1	0	6562.03	0.233398	0.233041	0.31081	3	0.0182296	7.24315e-05
2	1	0	0	0	6565.11	0.248795	0.248381	0.323624	3	0.0192127	8.0382e-05
2	1	0	0	0	6568.19	0.264192	0.263754	0.335841	3	0.0202344	8.85794e-05
2	1	0	1	0	6571.27	0.279589	0.279175	0.348534	3	0.0212953	9.73019e-05
2	1	0	0	0	6574.35	0.294986	0.294583	0.360067	3	0.0223932	0.000106069
2	1	0	1	0	6577.43	0.310383	0.30996	0.372101	3	0.0235275	0.000115336
2	1	0	0	0	6580.51	0.32578	0.325344	0.38391	3	0.0246983	0.000124903
2	1	0	1	0	6583.59	0.341177	0.340764	0.395341	3	0.0259044	0.000134718
2	1	0	0	0	6586.66	0.356574	0.356145	0.407476	3	0.0271471	0.00014512
2	1	0	1	0	6589.74	0.371972	0.371497	0.418547	3	0.0284257	0.000155489
2	1	0	0	0	6592.82	0.387369	0.386969	0.430759	3	0.0297401	0.00016669
2	1	0	1	0	6595.9	0.402766	0.402334	0.443053	3	0.0310927	0.000178256
2	1	0	0	0	6598.98	0.418163	0.417714	0.455847	3	0.0324834	0.000190414
2	1	0	0	0	6602.06	0.43356	0.43318	0.469847	3	0.0339151	0.000203528
2	1	0	1	0	6605.14	0.448957	0.448538	0.484003	3	0.0353905	0.000217094
2	1	0	0	0	6608.22	0.464354	0.463906	0.499719	3	0.0369113	0.000231823
2	1	0	1	0	6611.3	0.479751	0.479295	0.516562	3	0.0384831	0.000247586
2	1	0	0	0	6614.38	0.495148	0.494717	0.533901	3	0.040107	0.00026413
2	1	0	1	0	6617.46	0.510545	0.510126	0.552716	3	0.0417864	0.000281955
2	1	0	0	0	6620.54	0.525942	0.525525	0.572171	3	0.0435252	0.00030069
2	1	0	1	0	6623.62	0.54134	0.540908	0.592176	3	0.0453243	0.000320313
2	1	0	0	0	6626.7	0.556737	0.556292	0.613555	3	0.0471881	0.000341316
2	1	0	1	0	6629.78	0.572134	0.57166	0.634834	3	0.049117	0.000362909
2	1	0	0	0	6632.86	0.587531	0.587089	0.657519	3	0.0511131	0.000386022
2	1	0	0	0	6635.94	0.602928	0.602525	0.680078	3	0.0531793	0.000409763
2	1	0	1	0	6639.01	0.618325	0.617886	0.702395	3	0.0553144	0.000434
2	1	0	0	0	6642.09	0.633722	0.633349	0.725918	3	0.0575209	0.000459759
2	1	0	1	0	6645.17	0.649119	0.648686	0.747842	3	0.0597975	0.000485115
2	1	0	0	0	6648.25	0.664516	0.664076	0.770647	3	0.062143	0.000511768
2	1	0	1	0	6651.33	0.679913	0.679516	0.793065	3	0.0645583	0.0005389
2	1	0	0	0	6654.41	0.69531	0.694879	0.814713	3	0.0670407	0.000566127
2	1	0	1	0	6657.49	0.710707	0.710302	0.837204	3	0.0695911	0.000594668
2	1	0	0	0	6660.57	0.726105	0.72568	0.858506	3	0.0722093	0.000623001
2	1	0	1	0	6663.65	0.741502	0.741085	0.88135	3	0.0748949	0.000653155
2	1	0	1	0	6666.73	0.756899	0.756472	0.904814	3	0.0776527	0.000684467
2	1	0	0	0	6669.81	0.772296	0.771901	0.929594	3	0.0804839	0.000717554
2	1	0	1	0	6672.89	0.787693	0.787258	0.95698	3	0.083395	0.00075339
2	0	0	1	0	6675.32	0.799857	0.799353	0.979657	3	0.0857563	0.000783092
2	0	0	0	0	6678.12	0.785845	0.785434	0.57945	3	0.0878505	0.00045512
2	0	0	0	0	6681.2	0.770448	0.770039	0.329568	3	0.0892117	0.00025378
2	0	0	1	0	6684.28	0.755051	0.754589	0.157965	3	0.0899391	0.000119199
2	0	0	0	0	6687.42	0.739346	0.738943	0.027314	3	0.0902121	2.01835e-05
2	0	0	1	0	6690.5	0.723949	0.723538	-0.0712213	3	0.0901302	-5.15313e-05
2	0	0	0	0	6693.64	0.708244	0.707799	-0.152259	3	0.089767	-0.000107769
2	0	0	1	0	6696.72	0.692847	0.692392	-0.216649	3	0.0891878	-0.000150006
2	0	0	0	0	6699.8	0.67745	0.677038	-0.269718	3	0.0884291	-0.000182609
2	0	0	1	0	6702.88	0.662053	0.661612	-0.314641	3	0.0875201	-0.00020817
2	0	0	0	0	6705.96	0.646656	0.646261	-0.352322	3	0.0864842	-0.000227692
2	0	0	1	0	6709.04	0.631258	0.630873	-0.384602	3	0.0853415	-0.000242635
2	0	0	0	0	6712.12	0.615861	0.615436	-0.413095	3	0.0841044	-0.000254233
2	0	0	1	0	6715.2	0.600464	0.600021	-0.437186	3	0.0827877	-0.000262321
2	0	0	1	0	6718.28	0.585067	0.584606	-0.458974	3	0.0814009	-0.000268319
2	0	0	0	0	6721.36	0.56967	0.56922	-0.477782	3	0.0799514	-0.000271963
2	0	0	1	0	6724.44	0.554273	0.553887	-0.494224	3	0.0784479	-0.000273744
2	0	0	0	0	6727.52	0.538876	0.538469	-0.509866	3	0.0768941	-0.000274547
2	0	0	1	0	6730.6	0.523479	0.523081	-0.523139	3	0.0752962	-0.000273644
2	0	0	0	0	6733.68	0.508082	0.507667	-0.535923	3	0.0736585	-0.00027207
2	0	0	1	0	6736.76	0.492685	0.492245	-0.547026	3	0.0719838	-0.000269271
2	0	0	0	0	6739.84	0.477288	0.476866	-0.555904	3	0.0702788	-0.000265092
2	0	0	1	0	6742.91	0.461891	0.461409	-0.56321	3	0.0685485	-0.00025987
2	0	0	0	0	6745.99	0.446493	0.446086	-0.566174	3	0.066802	-0.000252562
2	0	0	1	0	6749.07	0.431096	0.430658	-0.567147	3	0.0650497	-0.000244246
2	0	0	1	0	6752.15	0.415699	0.415256	-0.565405	3	0.0632983	-0.000234788
2	0	0	0	0	6755.23	0.400302	0.399896	-0.562109	3	0.0615555	-0.000224785
2	0	0	1	0	6758.31	0.384905	0.384487	-0.559043	3	0.059823	-0.000214945
2	0	0	0	0	6761.39	0.369508	0.3691	-0.556128	3	0.0580996	-0.000205267
2	0	0	1	0	6764.47	0.354111	0.353667	-0.555396	3	0.0563824	-0.000196425
2	0	0	0	0	6767.55	0.338714	0.338254	-0.556186	3	0.0546645	-0.000188132
2	0	0	1	0	6770.63	0.323317	0.32291	-0.5582	3	0.0529426	-0.000180248
2	0	0	0	0	6773.71	0.30792	0.307477	-0.561279	3	0.0512126	-0.00017258
2	0	0	1	0	6776.79	0.292523	0.292146	-0.56518	3	0.0494716	-0.000165115
2	0	0	0	0	6779.87	0.277125	0.27675	-0.56913	3	0.0477189	-0.000157507
2	0	0	1	0	6782.95	0.261728	0.261321	-0.573779	3	0.0459521	-0.00014994
2	0	0	1	0	6786.03	0.246331	0.24594	-0.577696	3	0.0441727	-0.000142078
2	0	0	0	0	6789.11	0.230934	0.230511	-0.582023	3	0.042381	-0.000134163
2	0	0	1	0	6792.19	0.215537	0.215123	-0.585395	3	0.0405772	-0.000125932
2	0	0	0	0	6795.26	0.20014	0.199779	-0.587745	3	0.0387647	-0.000117419
2	0	0	1	0	6798.34	0.184743	0.18435	-0.590204	3	0.0369441	-0.000108804
2	0	0	0	0	6801.42	0.169346	0.169038	-0.591005	3	0.0351184	-9.99023e-05
2	0	0	1	0	6804.5	0.153949	0.153573	-0.592043	3	0.03329	-9.09219e-05
2	0	0	0	0	6807.58	0.138552	0.138162	-0.59234	3	0.0314591	-8.18387e-05
2	0	0	1	0	6810.66	0.123155	0.122745	-0.591826	3	0.0296295	-7.26437e-05
2	0	0	0	0	6813.74	0.107758	0.107381	-0.591812	3	0.0278007	-6.35495e-05
2	0	0	1	0	6816.82	0.0923605	0.0919952	-0.590658	3	0.0259734	-5.43377e-05
2	0	0	1	0	6819.9	0.076963	0.0765739	-0.590467	3	0.0241483	-4.52144e-05
2	0	0	0	0	6822.98	0.0615661	0.0611976	-0.590305	3	0.0223233	-3.61252e-05
2	0	0	1	0	6826.06	0.0461692	0.0458224	-0.590227	3	0.0204992	-2.70456e-05
2	0	0	0	0	6829.14	0.0307723	0.030372	-0.590999	3	0.0186741	-1.79498e-05
2	0	0	1	0	6832.22	0.0153754	0.0149543	-0.591672	3	0.0168463	-8.84802e-06
2	0	0	0	0	6835.11	0.000901767	0.000552415	-0.592972	3	0.0151256	-3.27567e-07
2	1	0	1	1	6837.45	0.0110638	0.010687	-0.325263	4	0.0140894	-3.4761e-06
2	1	0	0	1	6840.53	0.0264609	0.0260667	-0.151057	4	0.0133926	-3.93756e-06
2	1	0	0	1	6843.64	0.0420124	0.0416492	-0.0468545	4	0.0131044	-1.95145e-06
2	1	0	1	1	6846.75	0.0575635	0.0571764	0.0238767	4	0.0130821	1.36519e-06
2	1	0	0	1	6849.83	0.0729603	0.072558	0.0769396	4	0.0132482	5.58258e-06
2	1	0	1	1	6852.97	0.0886653	0.0882547	0.119134	4	0.0135664	1.05142e-05
2	1	0	0	1	6856.05	0.104062	0.103677	0.152442	4	0.0139929	1.58046e-05
2	1	0	1	1	6859.13	0.119459	0.119098	0.180947	4	0.0145141	2.15505e-05
2	1	0	0	1	6862.21	0.134856	0.134448	0.204343	4	0.0151153	2.74735e-05
2	1	0	1	1	6865.29	0.150254	0.149842	0.225712	4	0.015785	3.38212e-05
2	1	0	0	1	6868.37	0.165651	0.165273	0.244498	4	0.0165169	4.04088e-05
2	1	0	1	1	6871.45	0.181048	0.180651	0.261258	4	0.0173027	4.71966e-05
2	1	0	0	1	6874.53	0.196445	0.196039	0.277148	4	0.0181386	5.4332e-05
2	1	0	1	1	6877.61	0.211842	0.211427	0.291474	4	0.0190214	6.16256e-05
2	1	0	1	1	6880.69	0.227239	0.226835	0.305299	4	0.0199468	6.92526e-05
2	1	0	0	1	6883.77	0.242636	0.242233	0.318551	4	0.0209144	7.71635e-05
2	1	0	1	1	6886.85	0.258033	0.25767	0.331198	4	0.0219213	8.534e-05
2	1	0	0	1	6889.93	0.27343	0.273041	0.343761	4	0.0229668	9.38611e-05
2	1	0	1	1	6893.01	0.288827	0.288457	0.35565	4	0.0240503	0.00010259
2	1	0	0	1	6896.09	0.304224	0.303838	0.367137	4	0.0251696	0.00011155
2	1	0	1	1	6899.17	0.319621	0.319213	0.379007	4	0.0263255	0.000120984
2	1	0	0	1	6902.24	0.335019	0.334539	0.390288	4	0.0275168	0.000130567
2	1	0	1	1	6905.32	0.350416	0.349974	0.402222	4	0.0287434	0.000140768
2	1	0	0	1	6908.4	0.365813	0.36539	0.41386	4	0.0300064	0.00015122
2	1	0	1	1	6911.48	0.38121	0.380775	0.425329	4	0.0313047	0.000161955
2	1	0	1	1	6914.56	0.396607	0.396169	0.437906	4	0.0326405	0.000173485
2	1	0	0	1	6917.64	0.412004	0.411531	0.449991	4	0.0340143	0.000185185
2	1	0	1	1	6920.72	0.427401	0.426979	0.463646	4	0.0354277	0.000197967
2	1	0	0	1	6923.8	0.442798	0.442377	0.478041	4	0.0368846	0.000211475
2	1	0	1	1	6926.88	0.458195	0.457745	0.493129	4	0.0383865	0.000225727
2	1	0	0	1	6929.96	0.473592	0.47318	0.510133	4	0.0399376	0.000241384
2	1	0	1	1	6933.04	0.488989	0.488542	0.526933	4	0.0415413	0.000257429
2	1	0	0	1	6936.12	0.504386	0.503918	0.545479	4	0.0431988	0.000274877
2	1	0	1	1	6939.2	0.519784	0.519408	0.564753	4	0.0449151	0.000293337
2	1	0	0	1	6942.28	0.535181	0.534746	0.584634	4	0.0466913	0.000312631
2	1	0	1	1	6945.36	0.550578	0.550197	0.60568	4	0.0485305	0.000333244
2	1	0	1	1	6948.44	0.565975	0.56554	0.626805	4	0.0504354	0.000354483
2	1	0	0	1	6951.52	0.581372	0.580905	0.648478	4	0.0524053	0.000376704
2	1	0	1	1	6954.59	0.596769	0.596307	0.671077	4	0.0544444	0.000400168
2	1	0	0	1	6957.67	0.612166	0.611711	0.693415	4	0.0565521	0.00042417
2	1	0	1	1	6960.75	0.627563	0.627162	0.716899	4	0.0587294	0.000449612
2	1	0	0	1	6963.83	0.64296	0.642587	0.739084	4	0.060978	0.000474926
2	1	0	1	1	6966.91	0.658357	0.657922	0.760928	4	0.0632941	0.000500631
2	1	0	0	1	6969.99	0.673755	0.67335	0.783372	4	0.0656795	0.000527483
2	1	0	1	1	6973.07	0.689152	0.688729	0.804606	4	0.0681318	0.000554156
2	1	0	0	1	6976.15	0.704549	0.704121	0.826637	4	0.0706506	0.000582052
2	1	0	1	1	6979.23	0.719946	0.719512	0.848467	4	0.073237	0.000610482
2	1	0	1	1	6982.31	0.735343	0.734889	0.870156	4	0.0758898	0.000639468
2	1	0	0	1	6985.39	0.75074	0.750329	0.893716	4	0.0786123	0.000670581
2	1	0	1	1	6988.47	0.766137	0.765699	0.917253	4	0.0814077	0.000702339
2	1	0	0	1	6991.55	0.781534	0.781125	0.943459	4	0.0842796	0.000736959
2	1	0	1	1	6994.63	0.796931	0.796554	0.972013	4	0.0872367	0.000774261
2	0	0	0	1	6996.78	0.792004	0.791626	0.718486	4	0.0891081	0.000568772
2	0	0	1	1	6999.86	0.776607	0.776186	0.415619	4	0.0908039	0.000322598
2	0	0	0	1	7002.94	0.76121	0.760733	0.21972	4	0.0917547	0.000167148
2	0	0	1	1	7006.02	0.745813	0.745351	0.0765653	4	0.0921915	5.7068e-05
2	0	0	0	1	7009.16	0.730108	0.729685	-0.0349955	4	0.0922404	-2.55357e-05
2	0	0	1	1	7012.3	0.714403	0.714023	-0.122707	4	0.0919795	-8.76154e-05
2	0	0	0	1	7015.38	0.699006	0.69858	-0.192899	4	0.0914824	-0.000134755
2	0	0	1	1	7018.46	0.683609	0.683224	-0.249549	4	0.0907906	-0.000170498
2	0	0	0	1	7021.54	0.668212	0.667801	-0.297587	4	0.0899386	-0.000198729
2	0	0	1	1	7024.62	0.652814	0.652319	-0.337942	4	0.0889507	-0.000220446
2	0	0	0	1	7027.7	0.637417	0.636997	-0.372119	4	0.0878489	-0.000237038
2	0	0	1	1	7030.78	0.62202	0.621596	-0.402448	4	0.0866483	-0.00025016
2	0	0	1	1	7033.86	0.606623	0.606207	-0.427682	4	0.085362	-0.000259264
2	0	0	0	1	7036.94	0.591226	0.590817	-0.450199	4	0.084003	-0.000265985
2	0	0	1	1	7040.02	0.575829	0.575408	-0.470202	4	0.0825779	-0.000270558
2	0	0	0	1	7043.1	0.560432	0.560032	-0.487637	4	0.081096	-0.000273092
2	0	0	1	1	7046.18	0.545035	0.544601	-0.503846	4	0.0795625	-0.000274395
2	0	0	0	1	7049.26	0.529638	0.529231	-0.517988	4	0.0779821	-0.000274135
2	0	0	1	1	7052.34	0.514241	0.513823	-0.530512	4	0.0763609	-0.000272589
2	0	0	0	1	7055.42	0.498844	0.498409	-0.542539	4	0.0747009	-0.000270406
2	0	0	1	1	7058.49	0.483446	0.483028	-0.55214	4	0.0730082	-0.000266699
2	0	0	0	1	7061.57	0.468049	0.467688	-0.560472	4	0.0712882	-0.000262126
2	0	0	0	1	7064.65	0.452652	0.452211	-0.565368	4	0.0695474	-0.000255666
2	0	0	1	1	7067.73	0.437255	0.43682	-0.56671	4	0.0677975	-0.00024755
2	0	0	0	1	7070.81	0.421858	0.421461	-0.566143	4	0.0660461	-0.000238607
2	0	0	1	1	7073.89	0.406461	0.40608	-0.56268	4	0.0643009	-0.000228493
2	0	0	0	1	7076.97	0.391064	0.390646	-0.559451	4	0.0625665	-0.000218547
2	0	0	1	1	7080.05	0.375667	0.375232	-0.556742	4	0.060841	-0.000208908
2	0	0	0	1	7083.13	0.36027	0.359863	-0.55512	4	0.059123	-0.000199767
2	0	0	1	1	7086.21	0.344873	0.344454	-0.555832	4	0.0574065	-0.000191458
2	0	0	0	1	7089.29	0.329476	0.329098	-0.557131	4	0.0556864	-0.000183351
2	0	0	1	1	7092.37	0.314079	0.313668	-0.56027	4	0.0539598	-0.000175739
2	0	0	0	1	7095.45	0.298681	0.298241	-0.563746	4	0.0522229	-0.000168132
2	0	0	0	1	7098.53	0.283284	0.282912	-0.567775	4	0.0504742	-0.00016063
2	0	0	1	1	7101.61	0.267887	0.267498	-0.572404	4	0.0487122	-0.000153117
2	0	0	0	1	7104.69	0.25249	0.252098	-0.57663	4	0.0469362	-0.000145368
2	0	0	1	1	7107.77	0.237093	0.236671	-0.58061	4	0.0451481	-0.000137414
2	0	0	0	1	7110.84	0.221696	0.221284	-0.584638	4	0.043347	-0.000129371
2	0	0	1	1	7113.92	0.206299	0.205911	-0.587628	4	0.0415357	-0.000120999
2	0	0	0	1	7117	0.190902	0.190524	-0.590445	4	0.0397156	-0.000112494
2	0	0	1	1	7120.08	0.175505	0.175065	-0.592	4	0.0378884	-0.000103638
2	0	0	0	1	7123.16	0.160108	0.159751	-0.592611	4	0.0360581	-9.46701e-05
2	0	0	1	1	7126.24	0.144711	0.144326	-0.593495	4	0.0342247	-8.5657e-05
2	0	0	0	1	7129.32	0.129313	0.128957	-0.592844	4	0.0323914	-7.64517e-05
2	0	0	0	1	7132.4	0.113916	0.113549	-0.592799	4	0.0305593	-6.73116e-05
2	0	0	1	1	7135.48	0.0985191	0.0980962	-0.59219	4	0.0287283	-5.80916e-05
2	0	0	0	1	7138.56	0.0831222	0.0827656	-0.591276	4	0.0269	-4.89373e-05
2	0	0	1	1	7141.64	0.0677252	0.0672683	-0.591273	4	0.0250729	-3.97739e-05
2	0	0	0	1	7144.72	0.0523284	0.0519472	-0.590478	4	0.0232467	-3.06737e-05
2	0	0	1	1	7147.8	0.0369314	0.0365348	-0.590937	4	0.0214212	-2.15898e-05
2	0	0	0	1	7150.88	0.0215339	0.0210614	-0.591648	4	0.0195933	-1.24609e-05
2	0	0	1	1	7153.96	0.00613678	0.00576347	-0.592694	4	0.0177634	-3.41598e-06
2	1	0	0	0	7156.11	0.00490501	0.00454876	-0.444531	5	0.0165697	-2.02206e-06
2	1	0	0	0	7159.19	0.0203024	0.0198661	-0.207843	5	0.015624	-4.12903e-06
2	1	0	1	0	7162.27	0.0356993	0.0353091	-0.0835401	5	0.0151983	-2.94973e-06
2	1	0	0	0	7165.41	0.0514043	0.0510039	-0.000842178	5	0.0150811	-4.29544e-08
2	1	0	1	0	7168.49	0.0668012	0.0663801	0.0576553	5	0.0151795	3.82716e-06
2	1	0	0	0	7171.63	0.0825062	0.0821852	0.104166	5	0.0154443	8.56092e-06
2	1	0	1	0	7174.71	0.0979031	0.0975263	0.140095	5	0.0158295	1.3663e-05
2	1	0	0	0	7177.79	0.1133	0.112912	0.170473	5	0.0163159	1.92484e-05
2	1	0	1	0	7180.87	0.128698	0.128364	0.196059	5	0.0168882	2.51669e-05
2	1	0	0	0	7183.95	0.144095	0.143655	0.217869	5	0.0175327	3.1298e-05
2	1	0	1	0	7187.03	0.159492	0.159093	0.238021	5	0.018242	3.78674e-05
2	1	0	0	0	7190.11	0.174889	0.174467	0.254907	5	0.0190082	4.4473e-05
2	1	0	1	0	7193.19	0.190286	0.189912	0.271287	5	0.0198255	5.15205e-05
2	1	0	1	0	7196.27	0.205683	0.205288	0.286199	5	0.0206913	5.87534e-05
2	1	0	0	0	7199.35	0.22108	0.220647	0.300069	5	0.0216009	6.62093e-05
2	1	0	1	0	7202.43	0.236477	0.236067	0.31376	5	0.0225527	7.40685e-05
2	1	0	0	0	7205.51	0.251874	0.251419	0.326134	5	0.0235449	8.19964e-05
2	1	0	1	0	7208.59	0.267271	0.266886	0.338773	5	0.0245752	9.04138e-05
2	1	0	0	0	7211.67	0.282668	0.282258	0.350943	5	0.0256443	9.90567e-05
2	1	0	1	0	7214.75	0.298066	0.297642	0.362588	5	0.0267493	0.000107921
2	1	0	0	0	7217.82	0.313463	0.312994	0.374144	5	0.0278903	0.000117105
2	1	0	1	0	7220.9	0.32886	0.328454	0.385749	5	0.0290672	0.000126701
2	1	0	0	0	7223.98	0.344257	0.343829	0.396897	5	0.0302786	0.000136465
2	1	0	0	0	7227.06	0.359654	0.359218	0.408737	5	0.0315263	0.000146826
2	1	0	1	0	7230.14	0.375051	0.374625	0.420108	5	0.032809	0.000157383
2	1	0	0	0	7233.22	0.390448	0.390027	0.432548	5	0.0341279	0.000168706
2	1	0	1	0	7236.3	0.405845	0.405436	0.445041	5	0.0354854	0.000180436
2	1	0	0	0	7239.38	0.421242	0.420802	0.457797	5	0.0368817	0.000192642
2	1	0	1	0	7242.46	0.436639	0.436166	0.472221	5	0.0383205	0.000205967
2	1	0	0	0	7245.54	0.452036	0.451623	0.486658	5	0.0398037	0.000219786
2	1	0	1	0	7248.62	0.467433	0.466945	0.503116	5	0.0413344	0.000234928
2	1	0	0	0	7251.7	0.482831	0.482414	0.520393	5	0.0429176	0.000251045
2	1	0	1	0	7254.78	0.498228	0.497747	0.538263	5	0.0445541	0.000267919
2	1	0	0	0	7257.86	0.513625	0.513181	0.557658	5	0.0462479	0.00028618
2	1	0	0	0	7260.94	0.529022	0.528548	0.576825	5	0.0480017	0.00030488
2	1	0	1	0	7264.02	0.544419	0.543967	0.597587	5	0.0498167	0.000325067
2	1	0	0	0	7267.1	0.559816	0.559381	0.618768	5	0.0516969	0.000346127
2	1	0	1	0	7270.17	0.575213	0.57477	0.640108	5	0.0536419	0.000367915
2	1	0	0	0	7273.25	0.59061	0.590166	0.662567	5	0.0556544	0.000391024
2	1	0	1	0	7276.33	0.606007	0.605575	0.68456	5	0.0577358	0.000414552
2	1	0	0	0	7279.41	0.621404	0.620946	0.707005	5	0.0598853	0.000439012
2	1	0	1	0	7282.49	0.636801	0.636358	0.73	5	0.0621057	0.000464541
2	1	0	0	0	7285.57	0.652199	0.651768	0.751973	5	0.0643943	0.000490112
2	1	0	1	0	7288.65	0.667596	0.66718	0.774201	5	0.0667507	0.000516531
2	1	0	0	0	7291.73	0.682993	0.6826	0.795748	5	0.0691749	0.000543177
2	1	0	0	0	7294.81	0.69839	0.697938	0.816738	5	0.0716645	0.000570033
2	1	0	1	0	7297.89	0.713787	0.713378	0.838668	5	0.074221	0.000598288
2	1	0	0	0	7300.97	0.729184	0.728733	0.859962	5	0.0768434	0.000626683
2	1	0	1	0	7304.05	0.744581	0.744158	0.882865	5	0.0795334	0.000656991
2	1	0	0	0	7307.13	0.759978	0.759525	0.906695	5	0.0822955	0.000688657
2	1	0	1	0	7310.21	0.775375	0.774946	0.931624	5	0.0851323	0.000721959
2	1	0	0	0	7313.29	0.790772	0.790373	0.95971	5	0.0880511	0.000758528
2	0	0	1	0	7315.44	0.798163	0.797769	0.906606	5	0.0901235	0.000723262
2	0	0	0	0	7318.52	0.782766	0.782347	0.517962	5	0.0922376	0.000405226
2	0	0	1	0	7321.6	0.767369	0.766919	0.289366	5	0.0934476	0.000221921
2	0	0	0	0	7324.68	0.751972	0.751547	0.128941	5	0.0940704	9.69051e-05
2	0	0	1	0	7327.82	0.736267	0.735808	0.00514487	5	0.0942632	3.78564e-06
2	0	0	0	0	7330.9	0.72087	0.72052	-0.0886935	5	0.0941208	-6.39054e-05
2	0	0	1	0	7334.04	0.705165	0.704749	-0.166393	5	0.0937078	-0.000117265
2	0	0	0	0	7337.12	0.689767	0.689332	-0.228321	5	0.0930893	-0.000157389
2	0	0	1	0	7340.2	0.67437	0.673998	-0.279291	5	0.0922983	-0.000188242
2	0	0	0	0	7343.28	0.658973	0.658571	-0.322855	5	0.0913621	-0.000212623
2	0	0	0	0	7346.36	0.643576	0.643164	-0.358676	5	0.0903038	-0.000230688
2	0	0	1	0	7349.44	0.628179	0.627751	-0.390355	5	0.0891421	-0.000245046
2	0	0	0	0	7352.52	0.612782	0.612341	-0.417729	5	0.0878887	-0.000255793
2	0	0	1	0	7355.6	0.597385	0.596933	-0.441206	5	0.0865585	-0.00026337
2	0	0	0	0	7358.68	0.581988	0.581544	-0.462443	5	0.0851596	-0.000268931
2	0	0	1	0	7361.76	0.566591	0.566175	-0.480391	5	0.0837001	-0.000271985
2	0	0	0	0	7364.84	0.551194	0.550805	-0.497117	5	0.0821879	-0.000273815
2	0	0	1	0	7367.92	0.535797	0.53534	-0.512101	5	0.0806264	-0.000274148
2	0	0	0	0	7371	0.520399	0.520003	-0.525402	5	0.0790222	-0.000273211
2	0	0	1	0	7374.07	0.505002	0.504606	-0.537848	5	0.0773784	-0.000271401
2	0	0	1	0	7377.15	0.489605	0.489157	-0.548397	5	0.0756985	-0.000268252
2	0	0	0	0	7380.23	0.474208	0.473807	-0.556854	5	0.0739899	-0.000263841
2	0	0	1	0	7383.31	0.458811	0.458354	-0.563355	5	0.072257	-0.000258216
2	0	0	0	0	7386.39	0.443414	0.443051	-0.565992	5	0.070511	-0.000250763
2	0	0	1	0	7389.47	0.428017	0.427543	-0.566341	5	0.0687609	-0.000242135
2	0	0	0	0	7392.55	0.41262	0.412164	-0.564015	5	0.0670139	-0.000232467
2	0	0	1	0	7395.63	0.397223	0.396772	-0.56026	5	0.0652767	-0.000222295
2	0	0	0	0	7398.71	0.381826	0.381372	-0.557547	5	0.063549	-0.000212633
2	0	0	1	0	7401.79	0.366429	0.366046	-0.555007	5	0.0618297	-0.000203158
2	0	0	0	0	7404.87	0.351032	0.350634	-0.55515	5	0.0601141	-0.000194655
2	0	0	1	0	7407.95	0.335634	0.335213	-0.556713	5	0.0583957	-0.000186618
2	0	0	1	0	7411.03	0.320237	0.319835	-0.559119	5	0.0566715	-0.000178826
2	0	0	0	0	7414.11	0.30484	0.304416	-0.562794	5	0.0549379	-0.000171323
2	0	0	1	0	7417.19	0.289443	0.289089	-0.566333	5	0.0531927	-0.000163721
2	0	0	0	0	7420.27	0.274046	0.273678	-0.571004	5	0.0514349	-0.000156271
2	0	0	1	0	7423.35	0.258649	0.258268	-0.575515	5	0.0496625	-0.000148637
2	0	0	0	0	7426.42	0.243252	0.242826	-0.579721	5	0.0478771	-0.000140771
2	0	0	1	0	7429.5	0.227855	0.227497	-0.584147	5	0.0460785	-0.000132891
2	0	0	0	0	7432.58	0.212458	0.212074	-0.587339	5	0.0442679	-0.00012456
2	0	0	1	0	7435.66	0.197061	0.196668	-0.590278	5	0.0424483	-0.000116089
2	0	0	0	0	7438.74	0.181664	0.181294	-0.592503	5	0.0406201	-0.000107417
2	0	0	1	0	7441.82	0.166266	0.165887	-0.593627	5	0.0387874	-9.84749e-05
2	0	0	1	0	7444.9	0.150869	0.150507	-0.594712	5	0.0369517	-8.95082e-05
2	0	0	0	0	7447.98	0.135472	0.135065	-0.594431	5	0.0351143	-8.02866e-05
2	0	0	1	0	7451.06	0.120075	0.119705	-0.593669	5	0.0332787	-7.10654e-05
2	0	0	0	0	7454.14	0.104678	0.10426	-0.593381	5	0.0314439	-6.18661e-05
2	0	0	1	0	7457.22	0.0892813	0.0889062	-0.592327	5	0.0296118	-5.26615e-05
2	0	0	0	0	7460.3	0.0738844	0.0734546	-0.592113	5	0.0277819	-4.34935e-05
2	0	0	1	0	7463.38	0.0584869	0.0580587	-0.591689	5	0.0259528	-3.43526e-05
2	0	0	0	0	7466.46	0.0430898	0.0427321	-0.591251	5	0.0241254	-2.52654e-05
2	0	0	1	0	7469.54	0.0276927	0.027292	-0.592007	5	0.0222971	-1.6157e-05
2	0	0	0	0	7472.62	0.0122956	0.0118975	-0.592336	5	0.0204669	-7.04731e-06
2	1	0	1	1	7475.05	0.000131913	-0.000325996	-0.593796	5	0.0190188	1.93575e-07
2	1	0	1	1	7477.85	0.0141433	0.0137233	-0.280503	6	0.0178897	-3.84942e-06
2	1	0	0	1	7480.93	0.0295402	0.0290911	-0.126379	6	0.017294	-3.67652e-06
2	1	0	1	1	7484.07	0.0452452	0.0448918	-0.0296516	6	0.0170674	-1.33112e-06
2	1	0	0	1	7487.15	0.060642	0.0602224	0.03644	6	0.0170901	2.1945e-06
2	1	0	1	1	7490.23	0.0760395	0.0756905	0.0870191	6	0.0172901	6.58652e-06
2	1	0	0	1	7493.37	0.0917446	0.0913142	0.127175	6	0.0176357	1.16129e-05
2	1	0	1	1	7496.45	0.107142	0.106762	0.159005	6	0.0180846	1.69756e-05
2	1	0	0	1	7499.53	0.122539	0.122137	0.186647	6	0.0186254	2.27965e-05
2	1	0	1	1	7502.61	0.137936	0.1375	0.209688	6	0.0192434	2.88321e-05
2	1	0	0	1	7505.69	0.153333	0.152937	0.230766	6	0.0199285	3.52925e-05
2	1	0	0	1	7508.77	0.16873	0.168345	0.248958	6	0.0206742	4.19109e-05
2	1	0	1	1	7511.85	0.184127	0.183733	0.265251	6	0.0214725	4.87353e-05
2	1	0	0	1	7514.93	0.199524	0.19915	0.28097	6	0.0223206	5.59552e-05
2	1	0	1	1	7518.01	0.214921	0.214523	0.294685	6	0.023214	6.32168e-05
2	1	0	0	1	7521.09	0.230318	0.229933	0.308498	6	0.0241499	7.0934e-05
2	1	0	1	1	7524.17	0.245715	0.245339	0.321482	6	0.0251272	7.88719e-05
2	1	0	0	1	7527.25	0.261113	0.260699	0.333855	6	0.026143	8.70357e-05
2	1	0	1	1	7530.33	0.27651	0.276131	0.346395	6	0.027197	9.56503e-05
2	1	0	0	1	7533.4	0.291907	0.291541	0.357717	6	0.0282881	0.000104289
2	1	0	1	1	7536.48	0.307304	0.306946	0.369604	6	0.0294145	0.000113449
2	1	0	0	1	7539.56	0.322701	0.322286	0.38094	6	0.0305767	0.000122772
2	1	0	0	1	7542.64	0.338098	0.337612	0.392195	6	0.0317737	0.00013241
2	1	0	1	1	7545.72	0.353495	0.353081	0.403833	6	0.0330059	0.000142586
2	1	0	0	1	7548.8	0.368892	0.368474	0.415235	6	0.0342739	0.000153003
2	1	0	1	1	7551.88	0.384289	0.383794	0.426971	6	0.035577	0.000163869
2	1	0	0	1	7554.96	0.399686	0.39926	0.439574	6	0.0369182	0.000175504
2	1	0	1	1	7558.04	0.415083	0.4146	0.452326	6	0.0382978	0.000187535
2	1	0	0	1	7561.12	0.430481	0.430049	0.466531	6	0.0397186	0.000200631
2	1	0	1	1	7564.2	0.445878	0.445457	0.481147	6	0.0411838	0.00021433
2	1	0	0	1	7567.28	0.461275	0.460793	0.496459	6	0.0426952	0.000228765
2	1	0	1	1	7570.36	0.476672	0.476258	0.51383	6	0.044258	0.000244716
2	1	0	0	1	7573.44	0.492069	0.491652	0.531135	6	0.0458737	0.000261134
2	1	0	0	1	7576.52	0.507466	0.507042	0.550161	6	0.0475452	0.000278954
2	1	0	1	1	7579.6	0.522863	0.522459	0.569732	6	0.0492763	0.000297662
2	1	0	0	1	7582.68	0.53826	0.537847	0.589687	6	0.0510679	0.000317162
2	1	0	1	1	7585.75	0.553657	0.553228	0.611039	6	0.0529234	0.000338044
2	1	0	0	1	7588.83	0.569054	0.568602	0.631602	6	0.0548437	0.00035913
2	1	0	1	1	7591.91	0.584451	0.583995	0.653766	6	0.0568299	0.000381796
2	1	0	0	1	7594.99	0.599848	0.599418	0.675945	6	0.0588849	0.000405174
2	1	0	1	1	7598.07	0.615246	0.614778	0.698141	6	0.0610077	0.000429202
2	1	0	0	1	7601.15	0.630643	0.630192	0.721301	6	0.0632	0.000454558
2	1	0	1	1	7604.23	0.64604	0.645599	0.742964	6	0.0654618	0.000479657
2	1	0	1	1	7607.31	0.661437	0.661024	0.764924	6	0.0677902	0.000505633
2	1	0	0	1	7610.39	0.676834	0.676464	0.786549	6	0.0701866	0.000532072
2	1	0	1	1	7613.47	0.692231	0.691814	0.807752	6	0.0726484	0.000558815
2	1	0	0	1	7616.55	0.707628	0.707221	0.829404	6	0.0751758	0.000586573
2	1	0	1	1	7619.63	0.723025	0.722625	0.850748	6	0.0777697	0.000614772
2	1	0	0	1	7622.71	0.738422	0.73799	0.872391	6	0.0804293	0.000643816
2	1	0	1	1	7625.79	0.753819	0.753404	0.895941	6	0.0831595	0.000675006
2	1	0	0	1	7628.87	0.769216	0.768787	0.92034	6	0.0859628	0.000707545
2	1	0	1	1	7631.95	0.784614	0.784222	0.947556	6	0.0888446	0.000743094
2	1	0	0	1	7634.84	0.799087	0.798656	0.974674	6	0.0916325	0.000778429
2	0	0	1	1	7637.18	0.788925	0.788486	0.643041	6	0.0934967	0.000507029
2	0	0	0	1	7640.26	0.773528	0.77311	0.370021	6	0.0950132	0.000286067
2	0	0	1	1	7643.34	0.75813	0.757719	0.187125	6	0.0958464	0.000141788
2	0	0	0	1	7646.45	0.742579	0.742152	0.0507185	6	0.096198	3.76408e-05
2	0	0	1	1	7649.56	0.727028	0.72661	-0.0539821	6	0.0961787	-3.92239e-05
2	0	0	0	1	7652.7	0.711323	0.710951	-0.137658	6	0.0958652	-9.7868e-05
2	0	0	1	1	7655.78	0.695926	0.695538	-0.204973	6	0.095326	-0.000142567
2	0	0	1	1	7658.86	0.680529	0.680096	-0.259717	6	0.0946003	-0.000176632
2	0	0	0	1	7661.94	0.665132	0.664737	-0.306212	6	0.0937197	-0.000203551
2	0	0	1	1	7665.02	0.649735	0.649295	-0.345205	6	0.0927081	-0.00022414
2	0	0	0	1	7668.1	0.634338	0.633929	-0.378008	6	0.0915865	-0.00023963
2	0	0	1	1	7671.18	0.618941	0.61851	-0.407518	6	0.0903687	-0.000252054
2	0	0	0	1	7674.26	0.603544	0.603172	-0.431611	6	0.0890686	-0.000260336
2	0	0	1	1	7677.34	0.588147	0.58776	-0.453739	6	0.0876974	-0.000266689
2	0	0	0	1	7680.42	0.57275	0.572297	-0.473135	6	0.0862621	-0.000270774
2	0	0	1	1	7683.5	0.557353	0.556938	-0.490184	6	0.0847714	-0.000273002
2	0	0	0	1	7686.58	0.541955	0.541505	-0.506204	6	0.0832301	-0.000274112
2	0	0	1	1	7689.65	0.526558	0.526153	-0.519641	6	0.0816432	-0.000273411
2	0	0	1	1	7692.73	0.511161	0.510733	-0.532603	6	0.0800161	-0.000272018
2	0	0	0	1	7695.81	0.495764	0.495306	-0.544021	6	0.078351	-0.000269457
2	0	0	1	1	7698.89	0.480367	0.479941	-0.553391	6	0.0766543	-0.000265595
2	0	0	0	1	7701.97	0.46497	0.464562	-0.560994	6	0.0749314	-0.000260616
2	0	0	1	1	7705.05	0.449573	0.449108	-0.564917	6	0.0731902	-0.000253709
2	0	0	0	1	7708.13	0.434176	0.433817	-0.565773	6	0.0714423	-0.000245442
2	0	0	1	1	7711.21	0.418779	0.418364	-0.564453	6	0.0696947	-0.000236147
2	0	0	0	1	7714.29	0.403382	0.402934	-0.561223	6	0.067955	-0.000226136
2	0	0	1	1	7717.37	0.387984	0.387546	-0.558349	6	0.0662255	-0.000216386
2	0	0	0	1	7720.45	0.372587	0.372115	-0.555784	6	0.0645042	-0.000206816
2	0	0	1	1	7723.53	0.35719	0.356773	-0.554776	6	0.0627887	-0.000197929
2	0	0	1	1	7726.61	0.341793	0.341322	-0.556083	6	0.0610718	-0.000189803
2	0	0	0	1	7729.69	0.326396	0.326031	-0.557984	6	0.05935	-0.00018192
2	0	0	1	1	7732.77	0.310999	0.310624	-0.561464	6	0.0576198	-0.000174404
2	0	0	0	1	7735.85	0.295602	0.295157	-0.565563	6	0.0558781	-0.00016693
2	0	0	1	1	7738.93	0.280205	0.279802	-0.569635	6	0.054124	-0.000159385
2	0	0	0	1	7742	0.264808	0.264416	-0.574756	6	0.0523556	-0.000151975
2	0	0	1	1	7745.08	0.249411	0.249054	-0.578604	6	0.050573	-0.000144103
2	0	0	0	1	7748.16	0.234014	0.233656	-0.583102	6	0.0487775	-0.000136245
2	0	0	1	1	7751.24	0.218617	0.218244	-0.587006	6	0.0469687	-0.00012811
2	0	0	0	1	7754.32	0.203219	0.202823	-0.59006	6	0.0451497	-0.000119677
2	0	0	0	1	7757.4	0.187822	0.187436	-0.592823	6	0.0433216	-0.000111116
2	0	0	1	1	7760.48	0.172425	0.172061	-0.594099	6	0.0414871	-0.000102221
2	0	0	0	1	7763.56	0.157028	0.156676	-0.595092	6	0.0396497	-9.32366e-05
2	0	0	1	1	7766.64	0.141631	0.141196	-0.595492	6	0.0378094	-8.40809e-05
2	0	0	0	1	7769.72	0.126234	0.125871	-0.594988	6	0.0359701	-7.48914e-05
2	0	0	1	1	7772.8	0.110837	0.110456	-0.5946	6	0.0341322	-6.56772e-05
2	0	0	0	1	7775.88	0.0954399	0.0950718	-0.593689	6	0.032296	-5.64431e-05
2	0	0	1	1	7778.96	0.0800428	0.0796253	-0.592639	6	0.0304632	-4.71891e-05
2	0	0	0	1	7782.04	0.0646457	0.0642309	-0.592393	6	0.0286317	-3.80499e-05
2	0	0	1	1	7785.12	0.0492486	0.0488905	-0.591814	6	0.0268021	-2.89341e-05
2	0	0	0	1	7788.2	0.0338515	0.0334621	-0.592329	6	0.0249731	-1.98206e-05
2	0	0	0	1	7791.28	0.018454	0.0181053	-0.592813	6	0.0231421	-1.07331e-05
2	0	0	1	1	7794.36	0.00305714	0.00267292	-0.59353	6	0.0213096	-1.58646e-06
2	0	0	0	1	7794.94	0.000131913	-0.000268709	-0.594385	6	0.0209636	1.59716e-07