File: Input_data/[1] JJ1-53 1st SC total meas_03_CP.mpt
EC-Lab ASCII FILE
Nb header lines : 52

Chronopotentiometry

Run on channel : 1 (SN 31418)
User :
CE vs. WE compliance from -10 V to 10 V
Electrode connection : standard
Ewe ctrl range : min = -10.00 V, max = 10.00 V
Safety Limits :
	Do not start on E overload
Acquisition started on : 01/25/2023 15:21:28
Technique started on : 01/25/2023 15:43:55
Saved on :
	File : [1] JJ1-53 1st SC total meas_03_CP.mpr
	Directory : C:\Users\Potentiostat\Documents\EC-Lab\Data\Supercapacitor until 2021 02\(230125) SC JJ1-53 54 lower CB better viscosity\
	Host : 127.0.0.1
Device : SP-150 (SN 1275)
Address : USB
EC-Lab for windows v11.16 (software)
Internet server v11.16 (firmware)
Command interpretor v11.16 (firmware)
Electrode material : Au/Pd
Initial state :
Electrolyte : NaCl (0.2M)
Comments : Fe(CN)63-/Fe(CN)64- 5.10-3 M
Reference electrode : SCE Saturated Calomel Electrode (0.241 V)
Electrode surface area : 0.001 cm²
Characteristic mass : 0.001 g
Equivalent Weight : 0.000 g/eq.
Density : 0.000 g/cm3
Cycle Definition : Charge/Discharge alternance
Ns                  0                   1
Is                  5.000               -5.000
unit Is             mA                  mA
vs.                 <None>              <None>
ts (h:m:s)          24:00:0.0000        24:00:0.0000
EM (V)              0.800               0.000
dQM                 120.000             120.000
unit dQM            mA.h                mA.h
record              Ewe                 Ewe
dEs (mV)            1.00                1.00
dts (s)             1.0000              1.0000
E range min (V)     -10.000             -10.000
E range max (V)     10.000              10.000
I Range             10 mA               10 mA
Bandwidth           5                   5
goto Ns'            0                   0
nc cycles           0                   5

mode	ox/red	error	control changes	Ns changes	counter inc.	Ns	time/s	control/mA	Ewe/V	I/mA	dQ/C	(Q-Qo)/C	half cycle	Q charge/discharge/mA.h	Energy charge/W.h	Energy discharge/W.h	Capacitance charge/µF	Capacitance discharge/µF	Q discharge/mA.h	Q charge/mA.h	Capacity/mA.h	Efficiency/%	cycle number	P/W
1	1	0	0	0	0	0	1347.07	5	0.535865	4.94799	0.0000000E+000	0.0000000E+000	0	0.000000000000000E+000	0.000000000000000E+000	0.000000000000000E+000	0.000000000000000E+000	0.000000000000000E+000	0.000000000000000E+000	0.000000000000000E+000	0.000000000000000E+000	0	0.000000000000000E+000	0.00265145
1	1	0	0	0	0	0	1347.08	5	0.574976	4.99953	3.59966e-05	3.59966e-05	0	9.99906e-06	5.65344e-09	0.000000000000000E+000	1157.76	0.000000000000000E+000	0.000000000000000E+000	9.99906e-06	9.99906e-06	0	0.000000000000000E+000	0.00287461
1	1	0	0	0	0	0	1347.1	5	0.597357	4.99966	0.000155987	0.000155987	0	4.33298e-05	2.5276e-08	0.000000000000000E+000	2917.18	0.000000000000000E+000	0.000000000000000E+000	4.33298e-05	4.33298e-05	0	0.000000000000000E+000	0.00298658
1	1	0	0	0	0	0	1347.16	5	0.618992	4.99896	0.000420964	0.000420964	0	0.000116934	7.01672e-08	0.000000000000000E+000	5604.81	0.000000000000000E+000	0.000000000000000E+000	0.000116934	0.000116934	0	0.000000000000000E+000	0.00309432
1	1	0	0	0	0	0	1347.25	5	0.640647	5.00017	0.000875927	0.000875927	0	0.000243313	1.49923e-07	0.000000000000000E+000	9052.36	0.000000000000000E+000	0.000000000000000E+000	0.000243313	0.000243313	0	0.000000000000000E+000	0.00320334
1	1	0	0	0	0	0	1347.37	5	0.661844	4.99947	0.00151288	0.00151288	0	0.000420244	2.65328e-07	0.000000000000000E+000	12825.5	0.000000000000000E+000	0.000000000000000E+000	0.000420244	0.000420244	0	0.000000000000000E+000	0.00330887
1	1	0	0	0	0	0	1347.54	5	0.682983	4.99947	0.00232581	0.00232581	0	0.000646059	4.17381e-07	0.000000000000000E+000	16720.7	0.000000000000000E+000	0.000000000000000E+000	0.000646059	0.000646059	0	0.000000000000000E+000	0.00341455
1	1	0	0	0	0	0	1347.73	5	0.704065	4.99985	0.00329174	0.00329174	0	0.000914371	6.03673e-07	0.000000000000000E+000	20550.3	0.000000000000000E+000	0.000000000000000E+000	0.000914371	0.000914371	0	0.000000000000000E+000	0.00352022
1	1	0	0	0	0	0	1347.95	5	0.724803	5.00023	0.00441064	0.00441064	0	0.00122518	8.25932e-07	0.000000000000000E+000	24379.2	0.000000000000000E+000	0.000000000000000E+000	0.00122518	0.00122518	0	0.000000000000000E+000	0.00362418
1	1	0	0	0	0	0	1348.21	5	0.745636	4.9996	0.00570154	0.00570154	0	0.00158376	1.08983e-06	0.000000000000000E+000	28260.2	0.000000000000000E+000	0.000000000000000E+000	0.00158376	0.00158376	0	0.000000000000000E+000	0.00372788
1	1	0	0	0	0	0	1348.51	5	0.766699	5.00074	0.00716641	0.00716641	0	0.00199067	1.39784e-06	0.000000000000000E+000	32163.1	0.000000000000000E+000	0.000000000000000E+000	0.00199067	0.00199067	0	0.000000000000000E+000	0.00383406
1	1	0	0	0	0	0	1348.83	5	0.787705	4.99953	0.00879628	0.00879628	0	0.00244341	1.75004e-06	0.000000000000000E+000	36076.9	0.000000000000000E+000	0.000000000000000E+000	0.00244341	0.00244341	0	0.000000000000000E+000	0.00393815
1	0	0	1	0	0	1	1349.04	-5	0.477091	-5.00188	-6.98258e-06	0.00983721	1	-1.93948e-06	1.9813e-06	-9.45869e-10	38450.6	305.467	1.93948e-06	0.000000000000000E+000	1.93948e-06	0	0.000000000000000E+000	-0.00238635
1	0	0	1	0	0	1	1349.05	-5	0.44795	-5.00175	-3.79959e-05	0.00980619	1	-1.05545e-05	1.9813e-06	-4.89714e-09	38450.6	730.18	1.05545e-05	0.000000000000000E+000	1.05545e-05	0	0.000000000000000E+000	-0.00224054
1	0	0	1	0	0	1	1349.06	-5	0.424672	-5.00271	-0.000107027	0.00973716	1	-2.97299e-05	1.9813e-06	-1.32229e-08	38450.6	1420.82	2.97299e-05	0.000000000000000E+000	2.97299e-05	0	0.000000000000000E+000	-0.00212451
1	0	0	1	0	0	1	1349.09	-5	0.402521	-5.00232	-0.000237088	0.0096071	1	-6.5858e-05	1.9813e-06	-2.81046e-08	38450.6	2432.04	6.5858e-05	0.000000000000000E+000	6.5858e-05	0	0.000000000000000E+000	-0.00201354
1	0	0	1	0	0	1	1349.13	-5	0.380886	-5.0029	-0.00044819	0.009396	1	-0.000124497	1.9813e-06	-5.09911e-08	38450.6	3762.38	0.000124497	0.000000000000000E+000	0.000124497	0	0.000000000000000E+000	-0.00190553
1	0	0	1	0	0	1	1349.19	-5	0.359384	-5.00194	-0.000753336	0.00909085	1	-0.00020926	1.9813e-06	-8.22672e-08	38450.6	5356.95	0.00020926	0.000000000000000E+000	0.00020926	0	0.000000000000000E+000	-0.00179762
1	0	0	1	0	0	1	1349.27	-5	0.337843	-5.00252	-0.00115953	0.00868466	1	-0.000322092	1.9813e-06	-1.21494e-07	38450.6	7150.16	0.000322092	0.000000000000000E+000	0.000322092	0	0.000000000000000E+000	-0.00169007
1	0	0	1	0	0	1	1349.37	-5	0.316494	-5.00232	-0.00165477	0.00818942	1	-0.000459658	1.9813e-06	-1.66386e-07	38450.6	9016.89	0.000459658	0.000000000000000E+000	0.000459658	0	0.000000000000000E+000	-0.00158321
1	0	0	1	0	0	1	1349.49	-5	0.295298	-5.00277	-0.00222404	0.00762015	1	-0.000617788	1.9813e-06	-2.14636e-07	38450.6	10864	0.000617788	0.000000000000000E+000	0.000617788	0	0.000000000000000E+000	-0.00147731
1	0	0	1	0	0	1	1349.61	-5	0.274388	-5.00169	-0.00285734	0.00698685	1	-0.000793705	1.9813e-06	-2.64617e-07	38450.6	12664.1	0.000793705	0.000000000000000E+000	0.000793705	0	0.000000000000000E+000	-0.0013724
1	0	0	1	0	0	1	1349.75	-5	0.25342	-5.00264	-0.00354767	0.00629652	1	-0.000985463	1.9813e-06	-3.15085e-07	38450.6	14386.7	0.000985463	0.000000000000000E+000	0.000985463	0	0.000000000000000E+000	-0.00126777
1	0	0	1	0	0	1	1349.9	-5	0.232148	-5.00239	-0.00429403	0.00555016	1	-0.00119279	1.9813e-06	-3.65289e-07	38450.6	16030.5	0.00119279	0.000000000000000E+000	0.00119279	0	0.000000000000000E+000	-0.00116129
1	0	0	1	0	0	1	1350.06	-5	0.210817	-5.00264	-0.00509941	0.00474478	1	-0.0014165	1.9813e-06	-4.14696e-07	38450.6	17633	0.0014165	0.000000000000000E+000	0.0014165	0	0.000000000000000E+000	-0.00105464
1	0	0	1	0	0	1	1350.23	-5	0.189602	-5.00283	-0.00593381	0.00391038	1	-0.00164828	1.9813e-06	-4.60946e-07	38450.6	19115.9	0.00164828	0.000000000000000E+000	0.00164828	0	0.000000000000000E+000	-0.000948547
1	0	0	1	0	0	1	1350.4	-5	0.168577	-5.00264	-0.00679122	0.00305297	1	-0.00188645	1.9813e-06	-5.03475e-07	38450.6	20490.3	0.00188645	0.000000000000000E+000	0.00188645	0	0.000000000000000E+000	-0.000843332
1	0	0	1	0	0	1	1350.58	-5	0.147304	-5.00245	-0.00771166	0.00213253	1	-0.00214213	1.9813e-06	-5.43723e-07	38450.6	21864.1	0.00214213	0.000000000000000E+000	0.00214213	0	0.000000000000000E+000	-0.000736883
1	0	0	1	0	0	1	1350.77	-5	0.126108	-5.00283	-0.00865711	0.00118708	1	-0.00240475	1.9813e-06	-5.79455e-07	38450.6	23153.2	0.00240475	0.000000000000000E+000	0.00240475	0	0.000000000000000E+000	-0.000630897
1	0	0	1	0	0	1	1350.97	-5	0.104969	-5.0022	-0.00963158	0.000212611	1	-0.00267544	1.9813e-06	-6.10568e-07	38450.6	24380.9	0.00267544	0.000000000000000E+000	0.00267544	0	0.000000000000000E+000	-0.000525075
1	0	0	1	0	0	1	1351.17	-5	0.0837915	-5.00271	-0.0106451	-0.000800876	1	-0.00295696	1.9813e-06	-6.36964e-07	38450.6	25575.4	0.00295696	0.000000000000000E+000	0.00295696	0	0.000000000000000E+000	-0.000419184
1	0	0	1	0	0	1	1351.38	-5	0.0629387	-5.00277	-0.0116786	-0.00183436	1	-0.00324404	1.9813e-06	-6.57845e-07	38450.6	26719.8	0.00324404	0.000000000000000E+000	0.00324404	0	0.000000000000000E+000	-0.000314868
1	0	0	1	0	0	1	1351.59	-5	0.0415704	-5.00264	-0.0127641	-0.00291987	1	-0.00354557	1.9813e-06	-6.73412e-07	38450.6	27842.1	0.00354557	0.000000000000000E+000	0.00354557	0	0.000000000000000E+000	-0.000207962
1	0	0	1	0	0	1	1351.81	-5	0.0208132	-5.0022	-0.0138576	-0.00401339	1	-0.00384933	1.9813e-06	-6.8271e-07	38450.6	28918.1	0.00384933	0.000000000000000E+000	0.00384933	0	0.000000000000000E+000	-0.000104112
1	0	0	1	0	0	1	1352.04	-5	-7.77496e-05	-5.00283	-0.0149861	-0.00514192	1	-0.00416281	1.9813e-06	-6.85784e-07	38450.6	29966.7	0.00416281	0.000000000000000E+000	0.00416281	152.233	0.000000000000000E+000	3.88968e-07
1	1	0	0	0	1	0	1352.04	5	0.354419	4.99953	1.89747e-05	-0.00512295	2	5.27077e-06	1.78275e-09	-1.76774e-12	398.36	0.000000000000000E+000	0.000000000000000E+000	5.27077e-06	5.27077e-06	0	1	0.00177193
1	1	0	0	0	1	0	1352.05	5	0.382604	4.99947	5.99714e-05	-0.00508195	2	1.66586e-05	6.0119e-09	-1.76774e-12	790.706	0.000000000000000E+000	0.000000000000000E+000	1.66586e-05	1.66586e-05	0	1	0.00191282
1	1	0	0	0	1	0	1352.06	5	0.406264	4.99985	0.000132967	-0.00500895	2	3.69351e-05	1.40478e-08	-1.76774e-12	1336.13	0.000000000000000E+000	0.000000000000000E+000	3.69351e-05	3.69351e-05	0	1	0.00203126
1	1	0	0	0	1	0	1352.09	5	0.42811	4.99928	0.000248956	-0.00489296	2	6.91543e-05	2.75326e-08	-1.76774e-12	2051.25	0.000000000000000E+000	0.000000000000000E+000	6.91543e-05	6.91543e-05	0	1	0.00214024
1	1	0	0	0	1	0	1352.12	5	0.449898	4.99985	0.000427941	-0.00471398	2	0.000118873	4.94199e-08	-1.76774e-12	2989.27	0.000000000000000E+000	0.000000000000000E+000	0.000118873	0.000118873	0	1	0.00224942
1	1	0	0	0	1	0	1352.17	5	0.471878	4.99953	0.000679921	-0.004462	2	0.000188867	8.17593e-08	-1.76774e-12	4117.22	0.000000000000000E+000	0.000000000000000E+000	0.000188867	0.000188867	0	1	0.00235917
1	1	0	0	0	1	0	1352.24	5	0.49357	4.99953	0.0010079	-0.00413403	2	0.000279971	1.25829e-07	-1.76774e-12	5394.57	0.000000000000000E+000	0.000000000000000E+000	0.000279971	0.000279971	0	1	0.00246762
1	1	0	0	0	1	0	1352.32	5	0.514691	4.99877	0.00140386	-0.00373806	2	0.000389962	1.81381e-07	-1.76774e-12	6750.78	0.000000000000000E+000	0.000000000000000E+000	0.000389962	0.000389962	0	1	0.00257282
1	1	0	0	0	1	0	1352.41	5	0.536173	4.99966	0.00188283	-0.00325909	2	0.000523008	2.51404e-07	-1.76774e-12	8206.21	0.000000000000000E+000	0.000000000000000E+000	0.000523008	0.000523008	0	1	0.00268068
1	1	0	0	0	1	0	1352.52	5	0.557523	4.99966	0.00243278	-0.00270914	2	0.000675773	3.35059e-07	-1.76774e-12	9700.52	0.000000000000000E+000	0.000000000000000E+000	0.000675773	0.000675773	0	1	0.00278742
1	1	0	0	0	1	0	1352.65	5	0.578872	4.9994	0.00306474	-0.00207718	2	0.000851316	4.34932e-07	-1.76774e-12	11261.7	0.000000000000000E+000	0.000000000000000E+000	0.000851316	0.000851316	0	1	0.00289401
1	1	0	0	0	1	0	1352.79	5	0.599686	4.9996	0.00375368	-0.00138824	2	0.00104269	5.47838e-07	-1.76774e-12	12813.2	0.000000000000000E+000	0.000000000000000E+000	0.00104269	0.00104269	0	1	0.00299819
1	1	0	0	0	1	0	1352.94	5	0.621131	4.99909	0.00453662	-0.000605304	2	0.00126017	6.80742e-07	-1.76774e-12	14429.5	0.000000000000000E+000	0.000000000000000E+000	0.00126017	0.00126017	0	1	0.00310509
1	1	0	0	0	1	0	1353.11	5	0.641927	4.99826	0.00538355	0.00024163	2	0.00149543	8.29453e-07	-1.76774e-12	16061	0.000000000000000E+000	0.000000000000000E+000	0.00149543	0.00149543	0	1	0.00320851
1	1	0	0	0	1	0	1353.3	5	0.662798	4.99979	0.00632548	0.00118356	2	0.00175708	1.00033e-06	-1.76774e-12	17764.9	0.000000000000000E+000	0.000000000000000E+000	0.00175708	0.00175708	0	1	0.00331385
1	1	0	0	0	1	0	1353.51	5	0.684167	4.9994	0.00737541	0.00223349	2	0.00204873	1.19698e-06	-1.76774e-12	19540.9	0.000000000000000E+000	0.000000000000000E+000	0.00204873	0.00204873	0	1	0.00342043
1	1	0	0	0	1	0	1353.74	5	0.705344	4.99934	0.00852533	0.00338341	2	0.00236815	1.41913e-06	-1.76774e-12	21387.6	0.000000000000000E+000	0.000000000000000E+000	0.00236815	0.00236815	0	1	0.00352625
1	1	0	0	0	1	0	1353.99	5	0.72633	4.99838	0.00978124	0.00463932	2	0.00271701	1.66912e-06	-1.76774e-12	23311	0.000000000000000E+000	0.000000000000000E+000	0.00271701	0.00271701	0	1	0.00363048
1	1	0	0	0	1	0	1354.27	5	0.747279	4.99953	0.0111621	0.00602022	2	0.00310059	1.95203e-06	-1.76774e-12	25337	0.000000000000000E+000	0.000000000000000E+000	0.00310059	0.00310059	0	1	0.00373604
1	1	0	0	0	1	0	1354.57	5	0.768284	4.99972	0.012674	0.00753211	2	0.00352057	2.27057e-06	-1.76774e-12	27459.6	0.000000000000000E+000	0.000000000000000E+000	0.00352057	0.00352057	0	1	0.00384121
1	1	0	0	0	1	0	1354.9	5	0.788927	4.99921	0.0143189	0.009177	2	0.00397748	2.62659e-06	-1.76774e-12	29695.3	0.000000000000000E+000	0.000000000000000E+000	0.00397748	0.00397748	0	1	0.00394401
1	0	0	1	0	1	1	1355.1	-5	0.474971	-5.00271	-7.98343e-06	0.0101299	3	-2.21758e-06	2.83879e-06	-1.07954e-09	30982.6	322.529	2.21758e-06	0.000000000000000E+000	2.21758e-06	0	1	-0.00237614
1	0	0	1	0	1	1	1355.1	-5	0.447759	-5.0029	-3.79969e-05	0.0100999	3	-1.05545e-05	2.83879e-06	-4.89767e-09	30982.6	730.172	1.05545e-05	0.000000000000000E+000	1.05545e-05	0	1	-0.00224009
1	0	0	1	0	1	1	1355.12	-5	0.424004	-5.00322	-0.000109031	0.0100289	3	-3.02864e-05	2.83879e-06	-1.34553e-08	30982.6	1438	3.02864e-05	0.000000000000000E+000	3.02864e-05	0	1	-0.00212138
1	0	0	1	0	1	1	1355.14	-5	0.402158	-5.00226	-0.000237092	0.00990083	3	-6.58587e-05	2.83879e-06	-2.80937e-08	30982.6	2427.26	6.58587e-05	0.000000000000000E+000	6.58587e-05	0	1	-0.0020117
1	0	0	1	0	1	1	1355.19	-5	0.379644	-5.00239	-0.000459198	0.00967872	3	-0.000127555	2.83879e-06	-5.21293e-08	30982.6	3820.31	0.000127555	0.000000000000000E+000	0.000127555	0	1	-0.00189913
1	0	0	1	0	1	1	1355.25	-5	0.357741	-5.00213	-0.000778353	0.00935957	3	-0.000216209	2.83879e-06	-8.47249e-08	30982.6	5477.28	0.000216209	0.000000000000000E+000	0.000216209	0	1	-0.00178947
1	0	0	1	0	1	1	1355.33	-5	0.336736	-5.00226	-0.00118755	0.00895037	3	-0.000329874	2.83879e-06	-1.24092e-07	30982.6	7280.51	0.000329874	0.000000000000000E+000	0.000329874	0	1	-0.00168444
1	0	0	1	0	1	1	1355.43	-5	0.315444	-5.00277	-0.00168477	0.00845315	3	-0.000467993	2.83879e-06	-1.69011e-07	30982.6	9136.22	0.000467993	0.000000000000000E+000	0.000467993	0	1	-0.00157809
1	0	0	1	0	1	1	1355.55	-5	0.294056	-5.00245	-0.00226904	0.00786888	3	-0.00063029	2.83879e-06	-2.1835e-07	30982.6	11025.8	0.00063029	0.000000000000000E+000	0.00063029	0	1	-0.001471
1	0	0	1	0	1	1	1355.68	-5	0.27307	-5.00277	-0.00290934	0.00722858	3	-0.000808151	2.83879e-06	-2.68664e-07	30982.6	12828.9	0.000808151	0.000000000000000E+000	0.000808151	0	1	-0.00136611
1	0	0	1	0	1	1	1355.82	-5	0.251969	-5.00252	-0.00360968	0.00652825	3	-0.00100269	2.83879e-06	-3.19613e-07	30982.6	14562	0.00100269	0.000000000000000E+000	0.00100269	0	1	-0.00126048
1	0	0	1	0	1	1	1355.97	-5	0.230601	-5.00245	-0.00437003	0.00576789	3	-0.0012139	2.83879e-06	-3.7045e-07	30982.6	16230.3	0.0012139	0.000000000000000E+000	0.0012139	0	1	-0.00115357
1	0	0	1	0	1	1	1356.13	-5	0.2095	-5.00309	-0.00517041	0.00496751	3	-0.00143623	2.83879e-06	-4.1924e-07	30982.6	17807.4	0.00143623	0.000000000000000E+000	0.00143623	0	1	-0.00104815
1	0	0	1	0	1	1	1356.29	-5	0.188781	-5.00175	-0.0059948	0.00414312	3	-0.00166522	2.83879e-06	-4.64697e-07	30982.6	19271.4	0.00166522	0.000000000000000E+000	0.00166522	0	1	-0.000944234
1	0	0	1	0	1	1	1356.46	-5	0.167871	-5.00258	-0.00685821	0.00327971	3	-0.00190506	2.83879e-06	-5.07308e-07	30982.6	20658.4	0.00190506	0.000000000000000E+000	0.00190506	0	1	-0.000839787
1	0	0	1	0	1	1	1356.65	-5	0.14656	-5.00245	-0.00777665	0.00236127	3	-0.00216018	2.83879e-06	-5.47247e-07	30982.6	22011.9	0.00216018	0.000000000000000E+000	0.00216018	0	1	-0.000733158
1	0	0	1	0	1	1	1356.84	-5	0.125516	-5.00277	-0.00871109	0.00142683	3	-0.00241975	2.83879e-06	-5.82398e-07	30982.6	23270.7	0.00241975	0.000000000000000E+000	0.00241975	0	1	-0.000627928
1	0	0	1	0	1	1	1357.03	-5	0.104453	-5.00156	-0.00968956	0.000448359	3	-0.00269154	2.83879e-06	-6.13477e-07	30982.6	24505.7	0.00269154	0.000000000000000E+000	0.00269154	0	1	-0.000522429
1	0	0	1	0	1	1	1357.23	-5	0.0833905	-5.00315	-0.010696	-0.000558129	3	-0.00297112	2.83879e-06	-6.3954e-07	30982.6	25683.1	0.00297112	0.000000000000000E+000	0.00297112	0	1	-0.000417215
1	0	0	1	0	1	1	1357.44	-5	0.0623277	-5.00309	-0.0117305	-0.00159262	3	-0.00325848	2.83879e-06	-6.60296e-07	30982.6	26811.1	0.00325848	0.000000000000000E+000	0.00325848	0	1	-0.000311831
1	0	0	1	0	1	1	1357.65	-5	0.0414177	-5.00226	-0.0127931	-0.00265513	3	-0.00355363	2.83879e-06	-6.75443e-07	30982.6	27905.9	0.00355363	0.000000000000000E+000	0.00355363	0	1	-0.000207182
1	0	0	1	0	1	1	1357.87	-5	0.0202021	-5.00201	-0.0139096	-0.00377167	3	-0.00386378	2.83879e-06	-6.84817e-07	30982.6	28999.4	0.00386378	0.000000000000000E+000	0.00386378	0	1	-0.000101051
1	0	0	1	0	1	1	1358.09	-5	7.50177e-05	-5.0022	-0.0150061	-0.00486819	3	-0.00416837	2.83879e-06	-6.8771e-07	30982.6	30025.6	0.00416837	0.000000000000000E+000	0.00416837	98.2086	1	-3.75253e-07
1	1	0	0	0	0	0	1358.1	5	0.354247	4.9987	1.89763e-05	-0.00484922	4	5.27129e-06	1.78225e-09	-1.73156e-12	403.233	0.000000000000000E+000	0.000000000000000E+000	5.27129e-06	5.27129e-06	0	2	0.00177077
1	1	0	0	0	0	0	1358.11	5	0.382165	4.99858	5.89723e-05	-0.00480922	4	1.63812e-05	5.90367e-09	-1.73156e-12	786.242	0.000000000000000E+000	0.000000000000000E+000	1.63812e-05	1.63812e-05	0	2	0.00191028
1	1	0	0	0	0	0	1358.12	5	0.406092	5.00042	0.000132965	-0.00473523	4	3.69348e-05	1.40427e-08	-1.73156e-12	1343.85	0.000000000000000E+000	0.000000000000000E+000	3.69348e-05	3.69348e-05	0	2	0.00203063
1	1	0	0	0	0	0	1358.14	5	0.428549	4.99953	0.000253954	-0.00461424	4	7.05429e-05	2.81172e-08	-1.73156e-12	2091.78	0.000000000000000E+000	0.000000000000000E+000	7.05429e-05	7.05429e-05	0	2	0.00214254
1	1	0	0	0	0	0	1358.18	5	0.450948	4.9994	0.000438939	-0.00442926	4	0.000121927	5.07766e-08	-1.73156e-12	3052.24	0.000000000000000E+000	0.000000000000000E+000	0.000121927	0.000121927	0	2	0.00225447
1	1	0	0	0	0	0	1358.23	5	0.472985	5.00004	0.000697918	-0.00417028	4	0.000193866	8.40843e-08	-1.73156e-12	4208.2	0.000000000000000E+000	0.000000000000000E+000	0.000193866	0.000193866	0	2	0.00236494
1	1	0	0	0	0	0	1358.3	5	0.494583	4.9994	0.00103089	-0.0038373	4	0.000286359	1.28921e-07	-1.73156e-12	5499.67	0.000000000000000E+000	0.000000000000000E+000	0.000286359	0.000286359	0	2	0.00247262
1	1	0	0	0	0	0	1358.38	5	0.515951	4.99985	0.00143586	-0.00343234	4	0.00039885	1.85854e-07	-1.73156e-12	6876.21	0.000000000000000E+000	0.000000000000000E+000	0.00039885	0.00039885	0	2	0.00257968
1	1	0	0	0	0	0	1358.48	5	0.537396	4.99902	0.00192482	-0.00294337	4	0.000534673	2.575e-07	-1.73156e-12	8359.33	0.000000000000000E+000	0.000000000000000E+000	0.000534673	0.000534673	0	2	0.00268645
1	1	0	0	0	0	0	1358.59	5	0.558516	5.00017	0.00247878	-0.00238942	4	0.00068855	3.41937e-07	-1.73156e-12	9860.64	0.000000000000000E+000	0.000000000000000E+000	0.00068855	0.00068855	0	2	0.00279267
1	1	0	0	0	0	0	1358.72	5	0.580228	4.99928	0.00312973	-0.00173847	4	0.000869369	4.45034e-07	-1.73156e-12	11460.3	0.000000000000000E+000	0.000000000000000E+000	0.000869369	0.000869369	0	2	0.00290072
1	1	0	0	0	0	0	1358.86	5	0.601577	4.99934	0.00384568	-0.00102252	4	0.00106824	5.627e-07	-1.73156e-12	13060.9	0.000000000000000E+000	0.000000000000000E+000	0.00106824	0.00106824	0	2	0.00300749
1	1	0	0	0	0	0	1359.02	5	0.622449	4.99909	0.00462162	-0.000246575	4	0.00128378	6.94758e-07	-1.73156e-12	14657.2	0.000000000000000E+000	0.000000000000000E+000	0.00128378	0.00128378	0	2	0.00311167
1	1	0	0	0	0	0	1359.19	5	0.643626	5.00004	0.00549356	0.000625364	4	0.00152599	8.4825e-07	-1.73156e-12	16326	0.000000000000000E+000	0.000000000000000E+000	0.00152599	0.00152599	0	2	0.00321816
1	1	0	0	0	0	0	1359.38	5	0.664593	5.00004	0.00644149	0.00157329	4	0.0017893	1.02066e-06	-1.73156e-12	18020.2	0.000000000000000E+000	0.000000000000000E+000	0.0017893	0.0017893	0	2	0.00332299
1	1	0	0	0	0	0	1359.6	5	0.685924	4.99979	0.0075084	0.00264021	4	0.00208567	1.22099e-06	-1.73156e-12	19822.1	0.000000000000000E+000	0.000000000000000E+000	0.00208567	0.00208567	0	2	0.00342947
1	1	0	0	0	0	0	1359.82	5	0.706776	4.99966	0.00864332	0.00377513	4	0.00240092	1.44073e-06	-1.73156e-12	21627.6	0.000000000000000E+000	0.000000000000000E+000	0.00240092	0.00240092	0	2	0.00353364
1	1	0	0	0	0	0	1360.08	5	0.72782	5.00004	0.00991223	0.00504403	4	0.0027534	1.6938e-06	-1.73156e-12	23562	0.000000000000000E+000	0.000000000000000E+000	0.0027534	0.0027534	0	2	0.00363913
1	1	0	0	0	0	0	1360.36	5	0.749265	4.99909	0.0113311	0.00646293	4	0.00314753	1.98518e-06	-1.73156e-12	25628.4	0.000000000000000E+000	0.000000000000000E+000	0.00314753	0.00314753	0	2	0.00374564
1	1	0	0	0	0	0	1360.67	5	0.770136	4.99934	0.012854	0.00798582	4	0.00357056	2.30686e-06	-1.73156e-12	27762.3	0.000000000000000E+000	0.000000000000000E+000	0.00357056	0.00357056	0	2	0.00385017
1	1	0	0	0	0	0	1361	5	0.791046	4.99928	0.0145109	0.00964269	4	0.0040308	2.66644e-06	-1.73156e-12	29986.5	0.000000000000000E+000	0.000000000000000E+000	0.0040308	0.0040308	0	2	0.00395466
1	0	0	1	0	0	1	1361.15	-5	0.471477	-5.00181	-9.98347e-06	0.0104116	5	-2.77327e-06	2.83869e-06	-1.34179e-09	31029.3	361.462	2.77327e-06	0.000000000000000E+000	2.77327e-06	0	2	-0.00235824
1	0	0	1	0	0	1	1361.16	-5	0.443272	-5.00169	-4.70001e-05	0.0103746	5	-1.30556e-05	2.83869e-06	-6.00878e-09	31029.3	840.92	1.30556e-05	0.000000000000000E+000	1.30556e-05	0	2	-0.00221711
1	0	0	1	0	0	1	1361.18	-5	0.419517	-5.00226	-0.000129037	0.0102926	5	-3.58438e-05	2.83869e-06	-1.57909e-08	31029.3	1619.64	3.58438e-05	0.000000000000000E+000	3.58438e-05	0	2	-0.00209853
1	0	0	1	0	0	1	1361.21	-5	0.397002	-5.00245	-0.000279108	0.0101425	5	-7.753e-05	2.83869e-06	-3.27422e-08	31029.3	2731.13	7.753e-05	0.000000000000000E+000	7.753e-05	0	2	-0.00198599
1	0	0	1	0	0	1	1361.26	-5	0.374947	-5.00226	-0.000519223	0.00990241	5	-0.000144228	2.83869e-06	-5.8401e-08	31029.3	4178.64	0.000144228	0.000000000000000E+000	0.000144228	0	2	-0.00187558
1	0	0	1	0	0	1	1361.33	-5	0.352834	-5.0022	-0.000868388	0.00955325	5	-0.000241219	2.83869e-06	-9.3585e-08	31029.3	5932.74	0.000241219	0.000000000000000E+000	0.000241219	0	2	-0.00176494
1	0	0	1	0	0	1	1361.41	-5	0.331293	-5.00264	-0.0013056	0.00911604	5	-0.000362666	2.83869e-06	-1.35012e-07	31029.3	7775.38	0.000362666	0.000000000000000E+000	0.000362666	0	2	-0.00165734
1	0	0	1	0	0	1	1361.52	-5	0.309658	-5.00232	-0.00183785	0.00858379	5	-0.000510513	2.83869e-06	-1.82278e-07	31029.3	9695.79	0.000510513	0.000000000000000E+000	0.000510513	0	2	-0.00154901
1	0	0	1	0	0	1	1361.64	-5	0.288614	-5.00239	-0.00243212	0.00798951	5	-0.00067559	2.83869e-06	-2.31555e-07	31029.3	11548.8	0.00067559	0.000000000000000E+000	0.00067559	0	2	-0.00144376
1	0	0	1	0	0	1	1361.77	-5	0.267685	-5.0029	-0.00309144	0.0073302	5	-0.000858732	2.83869e-06	-2.82384e-07	31029.3	13352.5	0.000858732	0.000000000000000E+000	0.000858732	0	2	-0.0013392
1	0	0	1	0	0	1	1361.92	-5	0.246068	-5.00213	-0.00382979	0.00659185	5	-0.00106383	2.83869e-06	-3.34928e-07	31029.3	15129	0.00106383	0.000000000000000E+000	0.00106383	0	2	-0.00123087
1	0	0	1	0	0	1	1362.07	-5	0.224777	-5.00258	-0.00460616	0.00581548	5	-0.00127949	2.83869e-06	-3.85554e-07	31029.3	16784.2	0.00127949	0.000000000000000E+000	0.00127949	0	2	-0.00112446
1	0	0	1	0	0	1	1362.24	-5	0.203637	-5.00181	-0.00541654	0.00500509	5	-0.00150459	2.83869e-06	-4.33631e-07	31029.3	18325.5	0.00150459	0.000000000000000E+000	0.00150459	0	2	-0.00101856
1	0	0	1	0	0	1	1362.4	-5	0.182899	-5.0022	-0.00625294	0.0041687	5	-0.00173693	2.83869e-06	-4.78401e-07	31029.3	19768.3	0.00173693	0.000000000000000E+000	0.00173693	0	2	-0.000914898
1	0	0	1	0	0	1	1362.58	-5	0.161894	-5.00207	-0.00713336	0.00328828	5	-0.00198149	2.83869e-06	-5.20418e-07	31029.3	21147.3	0.00198149	0.000000000000000E+000	0.00198149	0	2	-0.000809804
1	0	0	1	0	0	1	1362.76	-5	0.14064	-5.00271	-0.0080568	0.00236484	5	-0.002238	2.83869e-06	-5.59082e-07	31029.3	22469.2	0.002238	0.000000000000000E+000	0.002238	0	2	-0.000703581
1	0	0	1	0	0	1	1362.96	-5	0.119272	-5.00201	-0.00902726	0.00139437	5	-0.00250757	2.83869e-06	-5.93965e-07	31029.3	23759.7	0.00250757	0.000000000000000E+000	0.00250757	0	2	-0.000596597
1	0	0	1	0	0	1	1363.16	-5	0.098037	-5.00258	-0.0100207	0.0004009	5	-0.00278354	2.83869e-06	-6.23783e-07	31029.3	24978.5	0.00278354	0.000000000000000E+000	0.00278354	0	2	-0.000490438
1	0	0	1	0	0	1	1363.36	-5	0.0769742	-5.00277	-0.0110382	-0.000616586	5	-0.00306617	2.83869e-06	-6.48349e-07	31029.3	26142.2	0.00306617	0.000000000000000E+000	0.00306617	0	2	-0.000385084
1	0	0	1	0	0	1	1363.57	-5	0.0556441	-5.00258	-0.0121027	-0.00168109	5	-0.00336187	2.83869e-06	-6.67775e-07	31029.3	27285	0.00336187	0.000000000000000E+000	0.00336187	0	2	-0.000278364
1	0	0	1	0	0	1	1363.79	-5	0.0343713	-5.00277	-0.0131942	-0.00277261	5	-0.00366507	2.83869e-06	-6.81248e-07	31029.3	28384.5	0.00366507	0.000000000000000E+000	0.00366507	0	2	-0.000171952
1	0	0	1	0	0	1	1364.01	-5	0.0133085	-5.00194	-0.0143168	-0.00389514	5	-0.00397688	2.83869e-06	-6.88498e-07	31029.3	29464.3	0.00397688	0.000000000000000E+000	0.00397688	0	2	-6.65682e-05
1	1	0	0	0	1	0	1364.16	5	0.331389	4.9987	5.97731e-06	-0.00461351	6	1.66034e-06	5.34985e-10	-1.7653e-12	246.505	0.000000000000000E+000	0.000000000000000E+000	1.66034e-06	1.66034e-06	0	3	0.00165651
1	1	0	0	0	1	0	1364.17	5	0.363967	4.99979	2.89752e-05	-0.00459051	6	8.04857e-06	2.78209e-09	-1.7653e-12	509.48	0.000000000000000E+000	0.000000000000000E+000	8.04857e-06	8.04857e-06	0	3	0.00181976
1	1	0	0	0	1	0	1364.18	5	0.389001	4.99915	7.59705e-05	-0.00454352	6	2.11029e-05	7.72634e-09	-1.7653e-12	927.31	0.000000000000000E+000	0.000000000000000E+000	2.11029e-05	2.11029e-05	0	3	0.00194468
1	1	0	0	0	1	0	1364.19	5	0.41268	4.99915	0.000162964	-0.00445652	6	4.52676e-05	1.74577e-08	-1.7653e-12	1543.01	0.000000000000000E+000	0.000000000000000E+000	4.52676e-05	4.52676e-05	0	3	0.00206305
1	1	0	0	0	1	0	1364.22	5	0.435653	5.00004	0.000304955	-0.00431453	6	8.47096e-05	3.4246e-08	-1.7653e-12	2371.51	0.000000000000000E+000	0.000000000000000E+000	8.47096e-05	8.47096e-05	0	3	0.00217828
1	1	0	0	0	1	0	1364.26	5	0.457556	4.99953	0.000509939	-0.00410955	6	0.00014165	5.9742e-08	-1.7653e-12	3388.37	0.000000000000000E+000	0.000000000000000E+000	0.00014165	0.00014165	0	3	0.00228756
1	1	0	0	0	1	0	1364.32	5	0.479611	5.00074	0.000792917	-0.00382657	6	0.000220255	9.66601e-08	-1.7653e-12	4595.17	0.000000000000000E+000	0.000000000000000E+000	0.000220255	0.000220255	0	3	0.00239841
1	1	0	0	0	1	0	1364.39	5	0.501094	4.99991	0.00114689	-0.0034726	6	0.000318581	1.44964e-07	-1.7653e-12	5910.64	0.000000000000000E+000	0.000000000000000E+000	0.000318581	0.000318581	0	3	0.00250543
1	1	0	0	0	1	0	1364.48	5	0.522711	5.0001	0.00158885	-0.00303063	6	0.000441348	2.07923e-07	-1.7653e-12	7367.55	0.000000000000000E+000	0.000000000000000E+000	0.000441348	0.000441348	0	3	0.00261361
1	1	0	0	0	1	0	1364.58	5	0.544423	4.99928	0.00210681	-0.00251267	6	0.000585226	2.84823e-07	-1.7653e-12	8875.72	0.000000000000000E+000	0.000000000000000E+000	0.000585226	0.000585226	0	3	0.00272172
1	1	0	0	0	1	0	1364.7	5	0.565658	4.99966	0.00269177	-0.00192772	6	0.000747713	3.75138e-07	-1.7653e-12	10408.9	0.000000000000000E+000	0.000000000000000E+000	0.000747713	0.000747713	0	3	0.00282809
1	1	0	0	0	1	0	1364.83	5	0.587045	4.99934	0.00335572	-0.00126377	6	0.000932144	4.8157e-07	-1.7653e-12	11985.1	0.000000000000000E+000	0.000000000000000E+000	0.000932144	0.000932144	0	3	0.00293484
1	1	0	0	0	1	0	1364.98	5	0.608089	4.99966	0.00409266	-0.000526825	6	0.00113685	6.04037e-07	-1.7653e-12	13595.3	0.000000000000000E+000	0.000000000000000E+000	0.00113685	0.00113685	0	3	0.00304024
1	1	0	0	0	1	0	1365.14	5	0.629247	5.00055	0.0049076	0.000288113	6	0.00136322	7.44248e-07	-1.7653e-12	15231.9	0.000000000000000E+000	0.000000000000000E+000	0.00136322	0.00136322	0	3	0.00314658
1	1	0	0	0	1	0	1365.32	5	0.650291	4.9996	0.00580453	0.00118505	6	0.00161237	9.0382e-07	-1.7653e-12	16911.2	0.000000000000000E+000	0.000000000000000E+000	0.00161237	0.00161237	0	3	0.00325119
1	1	0	0	0	1	0	1365.52	5	0.671621	4.99909	0.00680246	0.00218298	6	0.00188957	1.08725e-06	-1.7653e-12	18659	0.000000000000000E+000	0.000000000000000E+000	0.00188957	0.00188957	0	3	0.00335749
1	1	0	0	0	1	0	1365.74	5	0.692779	4.9994	0.00788138	0.00326189	6	0.00218927	1.29189e-06	-1.7653e-12	20432.6	0.000000000000000E+000	0.000000000000000E+000	0.00218927	0.00218927	0	3	0.00346348
1	1	0	0	0	1	0	1365.98	5	0.713784	4.99947	0.00907729	0.00445781	6	0.00252147	1.52574e-06	-1.7653e-12	22317.7	0.000000000000000E+000	0.000000000000000E+000	0.00252147	0.00252147	0	3	0.00356854
1	1	0	0	0	1	0	1366.23	5	0.734523	4.99947	0.0103562	0.00573671	6	0.00287672	1.78324e-06	-1.7653e-12	24226.8	0.000000000000000E+000	0.000000000000000E+000	0.00287672	0.00287672	0	3	0.00367222
1	1	0	0	0	1	0	1366.52	5	0.755604	5.0003	0.0117841	0.00716461	6	0.00327336	2.07903e-06	-1.7653e-12	26271.4	0.000000000000000E+000	0.000000000000000E+000	0.00327336	0.00327336	0	3	0.00377825
1	1	0	0	0	1	0	1366.83	5	0.776534	4.99979	0.013357	0.00873749	6	0.00371027	2.41405e-06	-1.7653e-12	28450.5	0.000000000000000E+000	0.000000000000000E+000	0.00371027	0.00371027	0	3	0.0038825
1	1	0	0	0	1	0	1367.17	5	0.797272	4.99896	0.0150438	0.0104244	6	0.00417885	2.78311e-06	-1.7653e-12	30688	0.000000000000000E+000	0.000000000000000E+000	0.00417885	0.00417885	0	3	0.00398553
1	0	0	1	0	1	1	1367.22	-5	0.462807	-5.00271	-1.6987e-05	0.0106544	7	-4.7187e-06	2.83794e-06	-2.24875e-09	31021.5	461.644	4.7187e-06	0.000000000000000E+000	4.7187e-06	0	3	-0.00231529
1	0	0	1	0	1	1	1367.23	-5	0.435939	-5.00322	-6.60094e-05	0.0106053	7	-1.83359e-05	2.83794e-06	-8.32611e-09	31021.5	1036.01	1.83359e-05	0.000000000000000E+000	1.83359e-05	0	3	-0.0021811
1	0	0	1	0	1	1	1367.25	-5	0.412738	-5.00188	-0.000165055	0.0105063	7	-4.58488e-05	2.83794e-06	-1.99485e-08	31021.5	1898.61	4.58488e-05	0.000000000000000E+000	4.58488e-05	0	3	-0.00206446
1	0	0	1	0	1	1	1367.29	-5	0.390892	-5.00315	-0.000336136	0.0103352	7	-9.3371e-05	2.83794e-06	-3.89756e-08	31021.5	3089.8	9.3371e-05	0.000000000000000E+000	9.3371e-05	0	3	-0.00195569
1	0	0	1	0	1	1	1367.34	-5	0.369256	-5.00175	-0.000600259	0.0100711	7	-0.000166739	2.83794e-06	-6.67694e-08	31021.5	4602.19	0.000166739	0.000000000000000E+000	0.000166739	0	3	-0.00184693
1	0	0	1	0	1	1	1367.41	-5	0.347831	-5.00271	-0.000963431	0.00970791	7	-0.00026762	2.83794e-06	-1.02833e-07	31021.5	6344.33	0.00026762	0.000000000000000E+000	0.00026762	0	3	-0.00174009
1	0	0	1	0	1	1	1367.5	-5	0.326252	-5.00226	-0.00142665	0.00924469	7	-0.000396292	2.83794e-06	-1.4608e-07	31021.5	8225.76	0.000396292	0.000000000000000E+000	0.000396292	0	3	-0.001632
1	0	0	1	0	1	1	1367.61	-5	0.305323	-5.00245	-0.0019619	0.00870944	7	-0.000544972	2.83794e-06	-1.92913e-07	31021.5	10093.8	0.000544972	0.000000000000000E+000	0.000544972	0	3	-0.00152736
1	0	0	1	0	1	1	1367.73	-5	0.284031	-5.00232	-0.00258119	0.00809015	7	-0.000716998	2.83794e-06	-2.43477e-07	31021.5	11968.8	0.000716998	0.000000000000000E+000	0.000716998	0	3	-0.00142082
1	0	0	1	0	1	1	1367.87	-5	0.262491	-5.00252	-0.00326952	0.00740182	7	-0.0009082	2.83794e-06	-2.956e-07	31021.5	13783.8	0.0009082	0.000000000000000E+000	0.0009082	0	3	-0.00131311
1	0	0	1	0	1	1	1368.02	-5	0.241676	-5.00277	-0.00399586	0.00667548	7	-0.00110996	2.83794e-06	-3.46346e-07	31021.5	15486.9	0.00110996	0.000000000000000E+000	0.00110996	0	3	-0.00120905
1	0	0	1	0	1	1	1368.17	-5	0.220766	-5.00232	-0.00477123	0.00590011	7	-0.00132534	2.83794e-06	-3.96016e-07	31021.5	17105.8	0.00132534	0.000000000000000E+000	0.00132534	0	3	-0.00110435
1	0	0	1	0	1	1	1368.34	-5	0.199589	-5.00258	-0.00559162	0.00507972	7	-0.00155323	2.83794e-06	-4.43768e-07	31021.5	18632.4	0.00155323	0.000000000000000E+000	0.00155323	0	3	-0.00099846
1	0	0	1	0	1	1	1368.51	-5	0.178545	-5.00283	-0.00645303	0.00421831	7	-0.00179251	2.83794e-06	-4.8887e-07	31021.5	20093.7	0.00179251	0.000000000000000E+000	0.00179251	0	3	-0.000893233
1	0	0	1	0	1	1	1368.69	-5	0.157616	-5.00258	-0.00734045	0.00333089	7	-0.00203901	2.83794e-06	-5.30146e-07	31021.5	21458.5	0.00203901	0.000000000000000E+000	0.00203901	0	3	-0.000788488
1	0	0	1	0	1	1	1368.87	-5	0.136229	-5.00232	-0.00828189	0.00238945	7	-0.00230053	2.83794e-06	-5.68398e-07	31021.5	22786	0.00230053	0.000000000000000E+000	0.00230053	0	3	-0.000681461
1	0	0	1	0	1	1	1369.06	-5	0.115491	-5.00245	-0.00922333	0.00144801	7	-0.00256204	2.83794e-06	-6.01164e-07	31021.5	24006.5	0.00256204	0.000000000000000E+000	0.00256204	0	3	-0.000577736
1	0	0	1	0	1	1	1369.26	-5	0.0944661	-5.00264	-0.0102138	0.000457541	7	-0.00283717	2.83794e-06	-6.29893e-07	31021.5	25205.2	0.00283717	0.000000000000000E+000	0.00283717	0	3	-0.00047258
1	0	0	1	0	1	1	1369.46	-5	0.0734415	-5.00245	-0.0112323	-0.000560942	7	-0.00312008	2.83794e-06	-6.53495e-07	31021.5	26351.3	0.00312008	0.000000000000000E+000	0.00312008	0	3	-0.000367387
1	0	0	1	0	1	1	1369.67	-5	0.0526269	-5.0022	-0.0122798	-0.00160843	7	-0.00341105	2.83794e-06	-6.7169e-07	31021.5	27467.5	0.00341105	0.000000000000000E+000	0.00341105	0	3	-0.00026325
1	0	0	1	0	1	1	1369.89	-5	0.0316978	-5.00175	-0.0133603	-0.00268894	7	-0.00371119	2.83794e-06	-6.84192e-07	31021.5	28547.9	0.00371119	0.000000000000000E+000	0.00371119	0	3	-0.000158545
1	0	0	1	0	1	1	1370.11	-5	0.0106541	-5.00264	-0.0144838	-0.00381247	7	-0.00402328	2.83794e-06	-6.90634e-07	31021.5	29616.9	0.00402328	0.000000000000000E+000	0.00402328	0	3	-5.32989e-05
1	1	0	0	0	0	0	1370.23	5	0.336526	4.99934	7.97708e-06	-0.00438578	8	2.2159e-06	7.21241e-10	-1.72678e-12	269.187	0.000000000000000E+000	0.000000000000000E+000	2.2159e-06	2.2159e-06	0	4	0.00168241
1	1	0	0	0	0	0	1370.24	5	0.368416	4.99889	3.49741e-05	-0.00435878	8	9.71499e-06	3.39402e-09	-1.72678e-12	568.067	0.000000000000000E+000	0.000000000000000E+000	9.71499e-06	9.71499e-06	0	4	0.00184167
1	1	0	0	0	0	0	1370.25	5	0.393432	4.99947	8.79697e-05	-0.00430578	8	2.44361e-05	9.03392e-09	-1.72678e-12	1015.83	0.000000000000000E+000	0.000000000000000E+000	2.44361e-05	2.44361e-05	0	4	0.00196695
1	1	0	0	0	0	0	1370.27	5	0.415984	4.99928	0.000178961	-0.00421479	8	4.97113e-05	1.9303e-08	-1.72678e-12	1639.45	0.000000000000000E+000	0.000000000000000E+000	4.97113e-05	4.97113e-05	0	4	0.00207962
1	1	0	0	0	0	0	1370.3	5	0.438173	4.99966	0.000324948	-0.00406881	8	9.02634e-05	3.66761e-08	-1.72678e-12	2473.86	0.000000000000000E+000	0.000000000000000E+000	9.02634e-05	9.02634e-05	0	4	0.00219072
1	1	0	0	0	0	0	1370.34	5	0.460095	4.9994	0.000538932	-0.00385482	8	0.000149703	6.34443e-08	-1.72678e-12	3516.05	0.000000000000000E+000	0.000000000000000E+000	0.000149703	0.000149703	0	4	0.0023002
1	1	0	0	0	0	0	1370.4	5	0.481521	4.99953	0.000822911	-0.00357084	8	0.000228586	1.00667e-07	-1.72678e-12	4710.3	0.000000000000000E+000	0.000000000000000E+000	0.000228586	0.000228586	0	4	0.00240738
1	1	0	0	0	0	0	1370.47	5	0.502698	5.00042	0.00117889	-0.00321487	8	0.000327468	1.49424e-07	-1.72678e-12	6018.31	0.000000000000000E+000	0.000000000000000E+000	0.000327468	0.000327468	0	4	0.0025137
1	1	0	0	0	0	0	1370.55	5	0.523895	4.99947	0.00161286	-0.0027809	8	0.000448016	2.11405e-07	-1.72678e-12	7429.77	0.000000000000000E+000	0.000000000000000E+000	0.000448016	0.000448016	0	4	0.00261919
1	1	0	0	0	0	0	1370.66	5	0.545263	4.99947	0.00212982	-0.00226393	8	0.000591618	2.88287e-07	-1.72678e-12	8931.99	0.000000000000000E+000	0.000000000000000E+000	0.000591618	0.000591618	0	4	0.00272603
1	1	0	0	0	0	0	1370.77	5	0.566249	4.99972	0.00271278	-0.00168097	8	0.000753551	3.78403e-07	-1.72678e-12	10456.5	0.000000000000000E+000	0.000000000000000E+000	0.000753551	0.000753551	0	4	0.00283109
1	1	0	0	0	0	0	1370.91	5	0.587427	4.99928	0.00337874	-0.00101501	8	0.000938539	4.85253e-07	-1.72678e-12	12040.6	0.000000000000000E+000	0.000000000000000E+000	0.000938539	0.000938539	0	4	0.00293671
1	1	0	0	0	0	0	1371.05	5	0.608451	5.00023	0.00411169	-0.000282064	8	0.00114214	6.07141e-07	-1.72678e-12	13631.2	0.000000000000000E+000	0.000000000000000E+000	0.00114214	0.00114214	0	4	0.0030424
1	1	0	0	0	0	0	1371.22	5	0.62961	4.99985	0.00492963	0.000535874	8	0.00136934	7.47937e-07	-1.72678e-12	15271.6	0.000000000000000E+000	0.000000000000000E+000	0.00136934	0.00136934	0	4	0.00314795
1	1	0	0	0	0	0	1371.4	5	0.650749	4.99972	0.00583456	0.0014408	8	0.00162071	9.09021e-07	-1.72678e-12	16964.1	0.000000000000000E+000	0.000000000000000E+000	0.00162071	0.00162071	0	4	0.00325356
1	1	0	0	0	0	0	1371.59	5	0.671583	4.99966	0.00681349	0.00241973	8	0.00189264	1.08899e-06	-1.72678e-12	18678.9	0.000000000000000E+000	0.000000000000000E+000	0.00189264	0.00189264	0	4	0.00335768
1	1	0	0	0	0	0	1371.81	5	0.692435	4.99985	0.00787843	0.00348467	8	0.00218845	1.29094e-06	-1.72678e-12	20430.4	0.000000000000000E+000	0.000000000000000E+000	0.00218845	0.00218845	0	4	0.00346207
1	1	0	0	0	0	0	1372.04	5	0.713364	5.00036	0.00905935	0.00466559	8	0.00251648	1.52173e-06	-1.72678e-12	22283.4	0.000000000000000E+000	0.000000000000000E+000	0.00251648	0.00251648	0	4	0.00356708
1	1	0	0	0	0	0	1372.3	5	0.734351	4.99845	0.0103503	0.0059565	8	0.00287507	1.78152e-06	-1.72678e-12	24209	0.000000000000000E+000	0.000000000000000E+000	0.00287507	0.00287507	0	4	0.00367061
1	1	0	0	0	0	0	1372.59	5	0.755318	4.9996	0.0117731	0.00737939	8	0.00327032	2.07617e-06	-1.72678e-12	26249.7	0.000000000000000E+000	0.000000000000000E+000	0.00327032	0.00327032	0	4	0.00377628
1	1	0	0	0	0	0	1372.9	5	0.7764	4.99934	0.013341	0.00894729	8	0.00370585	2.41002e-06	-1.72678e-12	28410.1	0.000000000000000E+000	0.000000000000000E+000	0.00370585	0.00370585	0	4	0.00388149
1	1	0	0	0	0	0	1373.25	5	0.797692	4.99909	0.0150809	0.0106872	8	0.00418915	2.79074e-06	-1.72678e-12	30722.3	0.000000000000000E+000	0.000000000000000E+000	0.00418915	0.00418915	0	4	0.00398773
1	0	0	1	0	0	1	1373.29	-5	0.463685	-5.00194	-1.59864e-05	0.0108742	9	-4.4406e-06	2.83582e-06	-2.11996e-09	30986.3	450.128	4.4406e-06	0.000000000000000E+000	4.4406e-06	0	4	-0.00231933
1	0	0	1	0	0	1	1373.3	-5	0.43718	-5.00232	-6.20067e-05	0.0108282	9	-1.7224e-05	2.83582e-06	-7.84079e-09	30986.3	998.961	1.7224e-05	0.000000000000000E+000	1.7224e-05	0	4	-0.00218692
1	0	0	1	0	0	1	1373.32	-5	0.414284	-5.00181	-0.000156051	0.0107341	9	-4.33474e-05	2.83582e-06	-1.89122e-08	30986.3	1836.19	4.33474e-05	0.000000000000000E+000	4.33474e-05	0	4	-0.00207217
1	0	0	1	0	0	1	1373.35	-5	0.391446	-5.00194	-0.000331133	0.010559	9	-9.19816e-05	2.83582e-06	-3.8425e-08	30986.3	3070.77	9.19816e-05	0.000000000000000E+000	9.19816e-05	0	4	-0.00195799
1	0	0	1	0	0	1	1373.41	-5	0.369714	-5.00296	-0.000593257	0.0102969	9	-0.000164794	2.83582e-06	-6.60429e-08	30986.3	4578.67	0.000164794	0.000000000000000E+000	0.000164794	0	4	-0.00184967
1	0	0	1	0	0	1	1373.48	-5	0.348365	-5.00271	-0.000952426	0.00993774	9	-0.000264563	2.83582e-06	-1.01758e-07	30986.3	6310.74	0.000264563	0.000000000000000E+000	0.000264563	0	4	-0.00174277
1	0	0	1	0	0	1	1373.57	-5	0.326863	-5.00315	-0.00141364	0.00947652	9	-0.000392678	2.83582e-06	-1.4489e-07	30986.3	8198.59	0.000392678	0.000000000000000E+000	0.000392678	0	4	-0.00163535
1	0	0	1	0	0	1	1373.68	-5	0.305342	-5.00207	-0.0019609	0.00892926	9	-0.000544694	2.83582e-06	-1.92818e-07	30986.3	10110.5	0.000544694	0.000000000000000E+000	0.000544694	0	4	-0.00152734
1	0	0	1	0	0	1	1373.8	-5	0.284298	-5.00252	-0.00257319	0.00831698	9	-0.000714774	2.83582e-06	-2.42849e-07	30986.3	11968.8	0.000714774	0.000000000000000E+000	0.000714774	0	4	-0.00142221
1	0	0	1	0	0	1	1373.94	-5	0.26314	-5.0022	-0.00325551	0.00763465	9	-0.000904308	2.83582e-06	-2.94613e-07	30986.3	13785.8	0.000904308	0.000000000000000E+000	0.000904308	0	4	-0.00131628
1	0	0	1	0	0	1	1374.09	-5	0.242135	-5.00283	-0.00398885	0.00690131	9	-0.00110801	2.83582e-06	-3.45949e-07	30986.3	15511.4	0.00110801	0.000000000000000E+000	0.00110801	0	4	-0.00121136
1	0	0	1	0	0	1	1374.24	-5	0.2209	-5.00232	-0.00477222	0.00611795	9	-0.00132562	2.83582e-06	-3.96187e-07	30986.3	17142.1	0.00132562	0.000000000000000E+000	0.00132562	0	4	-0.00110501
1	0	0	1	0	0	1	1374.41	-5	0.199856	-5.00207	-0.00559561	0.00529455	9	-0.00155434	2.83582e-06	-4.44164e-07	30986.3	18687.2	0.00155434	0.000000000000000E+000	0.00155434	0	4	-0.000999696
1	0	0	1	0	0	1	1374.58	-5	0.178564	-5.00226	-0.00646302	0.00442714	9	-0.00179528	2.83582e-06	-4.89599e-07	30986.3	20151.2	0.00179528	0.000000000000000E+000	0.00179528	0	4	-0.000893226
1	0	0	1	0	0	1	1374.76	-5	0.157368	-5.00322	-0.00736545	0.00352471	9	-0.00204596	2.83582e-06	-5.31539e-07	30986.3	21541.3	0.00204596	0.000000000000000E+000	0.00204596	0	4	-0.000787346
1	0	0	1	0	0	1	1374.95	-5	0.136152	-5.00277	-0.0082949	0.00259526	9	-0.00230414	2.83582e-06	-5.69271e-07	30986.3	22842.2	0.00230414	0.000000000000000E+000	0.00230414	0	4	-0.000681139
1	0	0	1	0	0	1	1375.14	-5	0.115433	-5.00296	-0.00924035	0.00164981	9	-0.00256676	2.83582e-06	-6.02165e-07	30986.3	24072.3	0.00256676	0.000000000000000E+000	0.00256676	0	4	-0.000577509
1	0	0	1	0	0	1	1375.33	-5	0.0947143	-5.00239	-0.0102168	0.000673351	9	-0.002838	2.83582e-06	-6.30521e-07	30986.3	25253.1	0.002838	0.000000000000000E+000	0.002838	0	4	-0.000473798
1	0	0	1	0	0	1	1375.53	-5	0.0738043	-5.00245	-0.0112373	-0.000347138	9	-0.00312147	2.83582e-06	-6.54241e-07	30986.3	26410.4	0.00312147	0.000000000000000E+000	0.00312147	0	4	-0.000369202
1	0	0	1	0	0	1	1375.75	-5	0.0525315	-5.0022	-0.0123008	-0.00141064	9	-0.00341689	2.83582e-06	-6.72723e-07	30986.3	27533.3	0.00341689	0.000000000000000E+000	0.00341689	0	4	-0.000262773
1	0	0	1	0	0	1	1375.97	-5	0.0312013	-5.00271	-0.0134083	-0.00251817	9	-0.00372454	2.83582e-06	-6.85417e-07	30986.3	28644.7	0.00372454	0.000000000000000E+000	0.00372454	0	4	-0.000156091
1	0	0	1	0	0	1	1376.19	-5	0.0104441	-5.00252	-0.0145099	-0.00361969	9	-0.00403051	2.83582e-06	-6.9161e-07	30986.3	29681.7	0.00403051	0.000000000000000E+000	0.00403051	0	4	-5.22467e-05
1	1	0	0	0	1	0	1376.31	5	0.336488	4.99966	7.9776e-06	-0.00418998	10	2.21603e-06	7.20894e-10	-1.72678e-12	268.823	0.000000000000000E+000	0.000000000000000E+000	2.21603e-06	2.21603e-06	0	5	0.00168232
1	1	0	0	0	1	0	1376.31	5	0.366946	5.00017	3.29752e-05	-0.00416499	10	9.15982e-06	3.18767e-09	-1.72678e-12	547.991	0.000000000000000E+000	0.000000000000000E+000	9.15982e-06	9.15982e-06	0	5	0.00183479
1	1	0	0	0	1	0	1376.32	5	0.392286	4.99985	8.49709e-05	-0.00411299	10	2.36031e-05	8.70218e-09	-1.72678e-12	993.433	0.000000000000000E+000	0.000000000000000E+000	2.36031e-05	2.36031e-05	0	5	0.00196137
1	1	0	0	0	1	0	1376.34	5	0.415659	4.99934	0.000178963	-0.004019	10	4.97121e-05	1.92959e-08	-1.72678e-12	1643.15	0.000000000000000E+000	0.000000000000000E+000	4.97121e-05	4.97121e-05	0	5	0.00207802
1	1	0	0	0	1	0	1376.37	5	0.438135	4.99921	0.00032595	-0.00387201	10	9.05416e-05	3.67862e-08	-1.72678e-12	2480.69	0.000000000000000E+000	0.000000000000000E+000	9.05416e-05	9.05416e-05	0	5	0.00219033
1	1	0	0	0	1	0	1376.41	5	0.45979	4.99915	0.000535932	-0.00366203	10	0.00014887	6.30386e-08	-1.72678e-12	3501.63	0.000000000000000E+000	0.000000000000000E+000	0.00014887	0.00014887	0	5	0.00229856
1	1	0	0	0	1	0	1376.47	5	0.481349	4.99979	0.000821908	-0.00337605	10	0.000228308	1.00497e-07	-1.72678e-12	4707.02	0.000000000000000E+000	0.000000000000000E+000	0.000228308	0.000228308	0	5	0.00240664
1	1	0	0	0	1	0	1376.54	5	0.502603	5.00055	0.00117988	-0.00301808	10	0.000327744	1.49507e-07	-1.72678e-12	6023.84	0.000000000000000E+000	0.000000000000000E+000	0.000327744	0.000327744	0	5	0.00251329
1	1	0	0	0	1	0	1376.63	5	0.523933	4.99966	0.00161984	-0.00257812	10	0.000449955	2.12342e-07	-1.72678e-12	7457.87	0.000000000000000E+000	0.000000000000000E+000	0.000449955	0.000449955	0	5	0.00261949
1	1	0	0	0	1	0	1376.73	5	0.545168	4.99921	0.0021338	-0.00206416	10	0.000592722	2.88775e-07	-1.72678e-12	8949.23	0.000000000000000E+000	0.000000000000000E+000	0.000592722	0.000592722	0	5	0.00272541
1	1	0	0	0	1	0	1376.85	5	0.566345	5.00004	0.00272176	-0.00147621	10	0.000756043	3.79664e-07	-1.72678e-12	10484	0.000000000000000E+000	0.000000000000000E+000	0.000756043	0.000756043	0	5	0.00283175
1	1	0	0	0	1	0	1376.98	5	0.587236	4.99915	0.0033807	-0.000817258	10	0.000939085	4.85372e-07	-1.72678e-12	12052.3	0.000000000000000E+000	0.000000000000000E+000	0.000939085	0.000939085	0	5	0.00293568
1	1	0	0	0	1	0	1377.13	5	0.60826	5.00074	0.00412164	-7.63183e-05	10	0.0011449	6.08562e-07	-1.72678e-12	13669.2	0.000000000000000E+000	0.000000000000000E+000	0.0011449	0.0011449	0	5	0.00304175
1	1	0	0	0	1	0	1377.29	5	0.629476	4.99915	0.00494058	0.000742622	10	0.00137238	7.49521e-07	-1.72678e-12	15308.1	0.000000000000000E+000	0.000000000000000E+000	0.00137238	0.00137238	0	5	0.00314684
1	1	0	0	0	1	0	1377.48	5	0.650825	4.99985	0.00585151	0.00165355	10	0.00162542	9.11674e-07	-1.72678e-12	17005.6	0.000000000000000E+000	0.000000000000000E+000	0.00162542	0.00162542	0	5	0.00325403
1	1	0	0	0	1	0	1377.67	5	0.671831	4.99947	0.00683743	0.00263947	10	0.00189929	1.09297e-06	-1.72678e-12	18727.7	0.000000000000000E+000	0.000000000000000E+000	0.00189929	0.00189929	0	5	0.0033588
1	1	0	0	0	1	0	1377.89	5	0.693161	5.00023	0.00794135	0.00374338	10	0.00220593	1.30246e-06	-1.72678e-12	20550.6	0.000000000000000E+000	0.000000000000000E+000	0.00220593	0.00220593	0	5	0.00346597
1	1	0	0	0	1	0	1378.13	5	0.714185	4.99972	0.00912025	0.00492229	10	0.0025334	1.53312e-06	-1.72678e-12	22383.6	0.000000000000000E+000	0.000000000000000E+000	0.0025334	0.0025334	0	5	0.00357073
1	1	0	0	0	1	0	1378.39	5	0.735439	4.99934	0.0104421	0.00624419	10	0.0029006	1.79951e-06	-1.72678e-12	24357.3	0.000000000000000E+000	0.000000000000000E+000	0.0029006	0.0029006	0	5	0.00367671
1	1	0	0	0	1	0	1378.68	5	0.756254	4.99985	0.011854	0.00765608	10	0.00329279	2.09229e-06	-1.72678e-12	26370.4	0.000000000000000E+000	0.000000000000000E+000	0.00329279	0.00329279	0	5	0.00378116
1	1	0	0	0	1	0	1378.99	5	0.777336	4.99928	0.0134189	0.00922096	10	0.00372748	2.42588e-06	-1.72678e-12	28514.3	0.000000000000000E+000	0.000000000000000E+000	0.00372748	0.00372748	0	5	0.00388612
1	1	0	0	0	1	0	1379.33	5	0.798112	4.99953	0.0151158	0.0109178	10	0.00419883	2.79745e-06	-1.72678e-12	30761.9	0.000000000000000E+000	0.000000000000000E+000	0.00419883	0.00419883	0	5	0.00399019
1	0	0	1	0	1	1	1379.37	-5	0.461661	-5.00213	-1.79875e-05	0.0110698	11	-4.99655e-06	2.8352e-06	-2.37622e-09	30994.7	482.182	4.99655e-06	0.000000000000000E+000	4.99655e-06	0	5	-0.00230929
1	0	0	1	0	1	1	1379.38	-5	0.435061	-5.00245	-6.80107e-05	0.0110198	11	-1.88919e-05	2.8352e-06	-8.56506e-09	30994.7	1063.46	1.88919e-05	0.000000000000000E+000	1.88919e-05	0	5	-0.00217637
1	0	0	1	0	1	1	1379.4	-5	0.412489	-5.0029	-0.000166056	0.0109218	11	-4.61266e-05	2.8352e-06	-2.00567e-08	30994.7	1918.8	4.61266e-05	0.000000000000000E+000	4.61266e-05	0	5	-0.00206364
1	0	0	1	0	1	1	1379.43	-5	0.390491	-5.00264	-0.000339139	0.0107487	11	-9.42051e-05	2.8352e-06	-3.92874e-08	30994.7	3124.3	9.42051e-05	0.000000000000000E+000	9.42051e-05	0	5	-0.00195349
1	0	0	1	0	1	1	1379.48	-5	0.368741	-5.00232	-0.000606265	0.0104816	11	-0.000168407	2.8352e-06	-6.73648e-08	30994.7	4652.73	0.000168407	0.000000000000000E+000	0.000168407	0	5	-0.00184456
1	0	0	1	0	1	1	1379.56	-5	0.347582	-5.00245	-0.000965433	0.0101224	11	-0.000268176	2.8352e-06	-1.03002e-07	30994.7	6374.02	0.000268176	0.000000000000000E+000	0.000268176	0	5	-0.00173876
1	0	0	1	0	1	1	1379.65	-5	0.32608	-5.00277	-0.00142965	0.00965817	11	-0.000397126	2.8352e-06	-1.46329e-07	30994.7	8265.46	0.000397126	0.000000000000000E+000	0.000397126	0	5	-0.0016313
1	0	0	1	0	1	1	1379.76	-5	0.304903	-5.00245	-0.00197291	0.00911491	11	-0.000548031	2.8352e-06	-1.93831e-07	30994.7	10162	0.000548031	0.000000000000000E+000	0.000548031	0	5	-0.00152526
1	0	0	1	0	1	1	1379.88	-5	0.28384	-5.00245	-0.00259221	0.00849561	11	-0.000720057	2.8352e-06	-2.44354e-07	30994.7	12045.1	0.000720057	0.000000000000000E+000	0.000720057	0	5	-0.0014199
1	0	0	1	0	1	1	1380.02	-5	0.262663	-5.00245	-0.00327553	0.00781229	11	-0.00090987	2.8352e-06	-2.9609e-07	30994.7	13856.7	0.00090987	0.000000000000000E+000	0.00090987	0	5	-0.00131396
1	0	0	1	0	1	1	1380.17	-5	0.241428	-5.00239	-0.00401788	0.00706994	11	-0.00111608	2.8352e-06	-3.4793e-07	30994.7	15596.1	0.00111608	0.000000000000000E+000	0.00111608	0	5	-0.00120772
1	0	0	1	0	1	1	1380.32	-5	0.220423	-5.00194	-0.00479725	0.00629057	11	-0.00133257	2.8352e-06	-3.97784e-07	30994.7	17217.4	0.00133257	0.000000000000000E+000	0.00133257	0	5	-0.00110254
1	0	0	1	0	1	1	1380.49	-5	0.199322	-5.00207	-0.00561964	0.00546819	11	-0.00156101	2.8352e-06	-4.45587e-07	30994.7	18749.1	0.00156101	0.000000000000000E+000	0.00156101	0	5	-0.000997021
1	0	0	1	0	1	1	1380.66	-5	0.177877	-5.00296	-0.00649605	0.00459177	11	-0.00180446	2.8352e-06	-4.91362e-07	30994.7	20226	0.00180446	0.000000000000000E+000	0.00180446	0	5	-0.000889912
1	0	0	1	0	1	1	1380.84	-5	0.156757	-5.00239	-0.00739948	0.00368835	11	-0.00205541	2.8352e-06	-5.33199e-07	30994.7	21617.3	0.00205541	0.000000000000000E+000	0.00205541	0	5	-0.000784159
1	0	0	1	0	1	1	1381.03	-5	0.135751	-5.00124	-0.00832791	0.00275991	11	-0.00231331	2.8352e-06	-5.70749e-07	30994.7	22923	0.00231331	0.000000000000000E+000	0.00231331	0	5	-0.000678926
1	0	0	1	0	1	1	1381.22	-5	0.115051	-5.0029	-0.00927337	0.00181446	11	-0.00257593	2.8352e-06	-6.03509e-07	30994.7	24149.4	0.00257593	0.000000000000000E+000	0.00257593	0	5	-0.000575591
1	0	0	1	0	1	1	1381.41	-5	0.0941032	-5.00271	-0.0102568	0.000830984	11	-0.00284912	2.8352e-06	-6.31908e-07	30994.7	25328.8	0.00284912	0.000000000000000E+000	0.00284912	0	5	-0.000470771
1	0	0	1	0	1	1	1381.62	-5	0.0729259	-5.00239	-0.0112913	-0.000203505	11	-0.00313648	2.8352e-06	-6.55732e-07	30994.7	26497.7	0.00313648	0.000000000000000E+000	0.00313648	0	5	-0.000364804
1	0	0	1	0	1	1	1381.83	-5	0.0518058	-5.00156	-0.0123498	-0.00126201	11	-0.00343051	2.8352e-06	-6.73884e-07	30994.7	27613.1	0.00343051	0.000000000000000E+000	0.00343051	0	5	-0.00025911
1	0	0	1	0	1	1	1382.05	-5	0.0310486	-5.0022	-0.0134223	-0.00233452	11	-0.00372843	2.8352e-06	-6.86052e-07	30994.7	28680.1	0.00372843	0.000000000000000E+000	0.00372843	0	5	-0.000155311
1	0	0	1	0	1	1	1382.27	-5	0.0100049	-5.00303	-0.0145449	-0.00345706	11	-0.00404024	2.8352e-06	-6.92281e-07	30994.7	29741.3	0.00404024	0.000000000000000E+000	0.00404024	0	5	-5.00547e-05
1	0	0	1	0	1	1	1382.38	-5	3.68259e-05	-5.00239	-0.0150941	-0.00400632	11	-0.00419282	2.8352e-06	-6.92955e-07	30994.7	30247.9	0.00419282	0.000000000000000E+000	0.00419282	98.7463	5	-1.84217e-07