File: Input_data/[1] JJ1-53 1st SC total meas_02_CP.mpt
EC-Lab ASCII FILE
Nb header lines : 52

Chronopotentiometry

Run on channel : 1 (SN 31418)
User :
CE vs. WE compliance from -10 V to 10 V
Electrode connection : standard
Ewe ctrl range : min = -10.00 V, max = 10.00 V
Safety Limits :
	Do not start on E overload
Acquisition started on : 01/25/2023 15:21:28
Technique started on : 01/25/2023 15:43:54
Saved on :
	File : [1] JJ1-53 1st SC total meas_02_CP.mpr
	Directory : C:\Users\Potentiostat\Documents\EC-Lab\Data\Supercapacitor until 2021 02\(230125) SC JJ1-53 54 lower CB better viscosity\
	Host : 127.0.0.1
Device : SP-150 (SN 1275)
Address : USB
EC-Lab for windows v11.16 (software)
Internet server v11.16 (firmware)
Command interpretor v11.16 (firmware)
Electrode material : Au/Pd
Initial state :
Electrolyte : NaCl (0.2M)
Comments : Fe(CN)63-/Fe(CN)64- 5.10-3 M
Reference electrode : SCE Saturated Calomel Electrode (0.241 V)
Electrode surface area : 0.001 cm²
Characteristic mass : 0.001 g
Equivalent Weight : 0.000 g/eq.
Density : 0.000 g/cm3
Cycle Definition : Charge/Discharge alternance
Ns                  0                   1
Is                  10.000              -10.000
unit Is             mA                  mA
vs.                 <None>              <None>
ts (h:m:s)          24:00:0.0000        24:00:0.0000
EM (V)              0.800               0.000
dQM                 240.000             240.000
unit dQM            mA.h                mA.h
record              Ewe                 Ewe
dEs (mV)            1.00                1.00
dts (s)             1.0000              1.0000
E range min (V)     -10.000             -10.000
E range max (V)     10.000              10.000
I Range             10 mA               10 mA
Bandwidth           5                   5
goto Ns'            0                   0
nc cycles           0                   5

mode	ox/red	error	control changes	Ns changes	counter inc.	Ns	time/s	control/mA	Ewe/V	I/mA	dQ/C	(Q-Qo)/C	half cycle	Q charge/discharge/mA.h	Energy charge/W.h	Energy discharge/W.h	Capacitance charge/µF	Capacitance discharge/µF	Q discharge/mA.h	Q charge/mA.h	Capacity/mA.h	Efficiency/%	cycle number	P/W
1	1	0	0	0	0	0	1346.5	10	0.687123	9.89511	0.0000000E+000	0.0000000E+000	0	0.000000000000000E+000	0.000000000000000E+000	0.000000000000000E+000	0.000000000000000E+000	0.000000000000000E+000	0.000000000000000E+000	0.000000000000000E+000	0.000000000000000E+000	0	0.000000000000000E+000	0.00679916
1	1	0	0	0	0	0	1346.5	10	0.724134	9.99998	9.99964e-06	9.99964e-06	0	2.77768e-06	1.98611e-09	0.000000000000000E+000	475.01	0.000000000000000E+000	0.000000000000000E+000	2.77768e-06	2.77768e-06	0	0.000000000000000E+000	0.00724133
1	1	0	0	0	0	0	1346.5	10	0.736108	9.99928	1.99996e-05	1.99996e-05	0	5.55545e-06	4.01912e-09	0.000000000000000E+000	605.6	0.000000000000000E+000	0.000000000000000E+000	5.55545e-06	5.55545e-06	0	0.000000000000000E+000	0.00736055
1	1	0	0	0	0	0	1346.5	10	0.744013	10.001	3.00001e-05	3.00001e-05	0	8.33337e-06	6.07775e-09	0.000000000000000E+000	732.959	0.000000000000000E+000	0.000000000000000E+000	8.33337e-06	8.33337e-06	0	0.000000000000000E+000	0.00744088
1	1	0	0	0	0	0	1346.5	10	0.750009	9.99941	4.00002e-05	4.00002e-05	0	1.11112e-05	8.15459e-09	0.000000000000000E+000	852.404	0.000000000000000E+000	0.000000000000000E+000	1.11112e-05	1.11112e-05	0	0.000000000000000E+000	0.00749965
1	1	0	0	0	0	0	1346.51	10	0.757247	10.0001	5.60008e-05	5.60008e-05	0	1.55558e-05	1.15082e-08	0.000000000000000E+000	1033.92	0.000000000000000E+000	0.000000000000000E+000	1.55558e-05	1.55558e-05	0	0.000000000000000E+000	0.00757255
1	1	0	0	0	0	0	1346.51	10	0.764179	10.0006	7.60012e-05	7.60012e-05	0	2.11114e-05	1.57395e-08	0.000000000000000E+000	1243.97	0.000000000000000E+000	0.000000000000000E+000	2.11114e-05	2.11114e-05	0	0.000000000000000E+000	0.00764221
1	1	0	0	0	0	0	1346.51	10	0.771091	10.0002	0.000100002	0.000100002	0	2.77783e-05	2.0863e-08	0.000000000000000E+000	1470.44	0.000000000000000E+000	0.000000000000000E+000	2.77783e-05	2.77783e-05	0	0.000000000000000E+000	0.00771109
1	1	0	0	0	0	0	1346.51	10	0.77682	10.0007	0.000126003	0.000126003	0	3.50008e-05	2.64578e-08	0.000000000000000E+000	1708.82	0.000000000000000E+000	0.000000000000000E+000	3.50008e-05	3.50008e-05	0	0.000000000000000E+000	0.00776878
1	1	0	0	0	0	0	1346.51	10	0.782243	10	0.000154003	0.000154003	0	4.27787e-05	3.25265e-08	0.000000000000000E+000	1945.46	0.000000000000000E+000	0.000000000000000E+000	4.27787e-05	4.27787e-05	0	0.000000000000000E+000	0.00782247
1	1	0	0	0	0	0	1346.52	10	0.788163	10.0004	0.000190004	0.000190004	0	5.2779e-05	4.03859e-08	0.000000000000000E+000	2233.24	0.000000000000000E+000	0.000000000000000E+000	5.2779e-05	5.2779e-05	0	0.000000000000000E+000	0.00788192
1	1	0	0	0	0	0	1346.52	10	0.793529	10	0.000228006	0.000228006	0	6.3335e-05	4.87393e-08	0.000000000000000E+000	2520.91	0.000000000000000E+000	0.000000000000000E+000	6.3335e-05	6.3335e-05	0	0.000000000000000E+000	0.00793533
1	1	0	0	0	0	0	1346.53	10	0.798971	10.0001	0.000274007	0.000274007	0	7.61131e-05	5.89204e-08	0.000000000000000E+000	2857.57	0.000000000000000E+000	0.000000000000000E+000	7.61131e-05	7.61131e-05	0	0.000000000000000E+000	0.0079898
1	0	0	1	0	0	1	1346.53	-10	0.17908	-9.94263	-3.81838e-06	0.000282189	1	-1.06066e-06	6.15972e-08	-2.06271e-10	2938.6	240.376	1.06066e-06	0.000000000000000E+000	1.06066e-06	0	0.000000000000000E+000	-0.00178053
1	0	0	1	0	0	1	1346.53	-10	0.142206	-9.98583	-1.37955e-05	0.000272212	1	-3.83209e-06	6.15972e-08	-6.33376e-10	2938.6	261.24	3.83209e-06	0.000000000000000E+000	3.83209e-06	0	0.000000000000000E+000	-0.00142004
1	0	0	1	0	0	1	1346.53	-10	0.123148	-9.99201	-2.3786e-05	0.000262221	1	-6.60723e-06	6.15972e-08	-9.94598e-10	2938.6	330.441	6.60723e-06	0.000000000000000E+000	6.60723e-06	0	0.000000000000000E+000	-0.0012305
1	0	0	1	0	0	1	1346.53	-10	0.110297	-9.99443	-3.37801e-05	0.000252227	1	-9.38335e-06	6.15972e-08	-1.31412e-09	2938.6	397.837	9.38335e-06	0.000000000000000E+000	9.38335e-06	0	0.000000000000000E+000	-0.00110235
1	0	0	1	0	0	1	1346.53	-10	0.0999275	-9.99596	-4.37751e-05	0.000242232	1	-1.21598e-05	6.15972e-08	-1.60227e-09	2938.6	459.208	1.21598e-05	0.000000000000000E+000	1.21598e-05	0	0.000000000000000E+000	-0.000998871
1	0	0	1	0	0	1	1346.53	-10	0.0913152	-9.9971	-5.37721e-05	0.000232235	1	-1.49367e-05	6.15972e-08	-1.86509e-09	2938.6	517.161	1.49367e-05	0.000000000000000E+000	1.49367e-05	0	0.000000000000000E+000	-0.000912888
1	0	0	1	0	0	1	1346.53	-10	0.0843261	-9.99984	-6.37711e-05	0.000222236	1	-1.77142e-05	6.15972e-08	-2.10671e-09	2938.6	574.552	1.77142e-05	0.000000000000000E+000	1.77142e-05	0	0.000000000000000E+000	-0.000843248
1	0	0	1	0	0	1	1346.54	-10	0.0778908	-10.001	-7.37711e-05	0.000212236	1	-2.0492e-05	6.15972e-08	-2.33001e-09	2938.6	628.108	2.0492e-05	0.000000000000000E+000	2.0492e-05	0	0.000000000000000E+000	-0.000778985
1	0	0	1	0	0	1	1346.54	-10	0.0715128	-9.99965	-8.57715e-05	0.000200236	1	-2.38254e-05	6.15972e-08	-2.57629e-09	2938.6	692.546	2.38254e-05	0.000000000000000E+000	2.38254e-05	0	0.000000000000000E+000	-0.000715103
1	0	0	1	0	0	1	1346.54	-10	0.0629005	-10.0009	-0.000103772	0.000182236	1	-2.88255e-05	6.15972e-08	-2.90648e-09	2938.6	783.265	2.88255e-05	0.000000000000000E+000	2.88255e-05	0	0.000000000000000E+000	-0.00062906
1	0	0	1	0	0	1	1346.54	-10	0.0547848	-10.0016	-0.000123773	0.000162234	1	-3.43815e-05	6.15972e-08	-3.22829e-09	2938.6	880.182	3.43815e-05	0.000000000000000E+000	3.43815e-05	0	0.000000000000000E+000	-0.000547937
1	0	0	1	0	0	1	1346.54	-10	0.0478148	-10.0016	-0.000143777	0.000142231	1	-3.9938e-05	6.15972e-08	-3.5094e-09	2938.6	974.042	3.9938e-05	0.000000000000000E+000	3.9938e-05	0	0.000000000000000E+000	-0.000478226
1	0	0	1	0	0	1	1346.54	-10	0.0417423	-10.0016	-0.00016378	0.000122227	1	-4.54945e-05	6.15972e-08	-3.7546e-09	2938.6	1065.63	4.54945e-05	0.000000000000000E+000	4.54945e-05	0	0.000000000000000E+000	-0.000417488
1	0	0	1	0	0	1	1346.55	-10	0.0362809	-10.0018	-0.000183783	0.000102224	1	-5.10509e-05	6.15972e-08	-3.96797e-09	2938.6	1154.66	5.10509e-05	0.000000000000000E+000	5.10509e-05	0	0.000000000000000E+000	-0.000362875
1	0	0	1	0	0	1	1346.55	-10	0.0298073	-10.0019	-0.000209789	7.62182e-05	1	-5.82748e-05	6.15972e-08	-4.20125e-09	2938.6	1266.46	5.82748e-05	0.000000000000000E+000	5.82748e-05	0	0.000000000000000E+000	-0.000298131
1	0	0	1	0	0	1	1346.55	-10	0.0238303	-10.0023	-0.000237795	4.82127e-05	1	-6.60541e-05	6.15972e-08	-4.40481e-09	2938.6	1385.45	6.60541e-05	0.000000000000000E+000	6.60541e-05	0	0.000000000000000E+000	-0.000238357
1	0	0	1	0	0	1	1346.56	-10	0.0174332	-10.0031	-0.000269803	1.62045e-05	1	-7.49453e-05	6.15972e-08	-4.58248e-09	2938.6	1515.38	7.49453e-05	0.000000000000000E+000	7.49453e-05	0	0.000000000000000E+000	-0.000174386
1	0	0	1	0	0	1	1346.56	-10	0.0114562	-10.0026	-0.000305812	-1.98044e-05	1	-8.49477e-05	6.15972e-08	-4.72038e-09	2938.6	1661.76	8.49477e-05	0.000000000000000E+000	8.49477e-05	0	0.000000000000000E+000	-0.000114592
1	0	0	1	0	0	1	1346.56	-10	0.00536458	-10.0026	-0.000343822	-5.78144e-05	1	-9.55061e-05	6.15972e-08	-4.80176e-09	2938.6	1808.37	9.55061e-05	0.000000000000000E+000	9.55061e-05	0	0.000000000000000E+000	-5.36597e-05
1	0	0	1	0	0	1	1346.57	-10	-0.000211421	-10.0025	-0.000383833	-9.78258e-05	1	-0.00010662	6.15972e-08	-4.82352e-09	2938.6	1961.23	0.00010662	0.000000000000000E+000	0.00010662	0	0.000000000000000E+000	2.11474e-06
1	1	0	0	0	1	0	1346.57	10	0.638432	9.99954	5.95328e-06	-9.38731e-05	2	1.65369e-06	1.04351e-09	-7.40691e-12	232.393	0.000000000000000E+000	0.000000000000000E+000	1.65369e-06	1.65369e-06	0	1	0.00638402
1	1	0	0	0	1	0	1346.57	10	0.669425	10.0006	1.59532e-05	-8.38732e-05	2	4.43144e-06	2.87386e-09	-7.40691e-12	281.637	0.000000000000000E+000	0.000000000000000E+000	4.43144e-06	4.43144e-06	0	1	0.00669466
1	1	0	0	0	1	0	1346.57	10	0.68705	10.0005	2.59533e-05	-7.38732e-05	2	7.20924e-06	4.76436e-09	-7.40691e-12	349.296	0.000000000000000E+000	0.000000000000000E+000	7.20924e-06	7.20924e-06	0	1	0.00687084
1	1	0	0	0	1	0	1346.57	10	0.699501	10.0005	3.59535e-05	-6.3873e-05	2	9.98707e-06	6.6945e-09	-7.40691e-12	414.34	0.000000000000000E+000	0.000000000000000E+000	9.98707e-06	9.98707e-06	0	1	0.00699535
1	1	0	0	0	1	0	1346.57	10	0.709297	10.0002	4.59534e-05	-5.3873e-05	2	1.27648e-05	8.65418e-09	-7.40691e-12	475.789	0.000000000000000E+000	0.000000000000000E+000	1.27648e-05	1.27648e-05	0	1	0.00709309
1	1	0	0	0	1	0	1346.57	10	0.717203	10.0002	5.59535e-05	-4.38729e-05	2	1.55426e-05	1.06377e-08	-7.40691e-12	535.44	0.000000000000000E+000	0.000000000000000E+000	1.55426e-05	1.55426e-05	0	1	0.0071722
1	1	0	0	0	1	0	1346.57	10	0.723791	10.0006	6.59542e-05	-3.38723e-05	2	1.83206e-05	1.26411e-08	-7.40691e-12	593.666	0.000000000000000E+000	0.000000000000000E+000	1.83206e-05	1.83206e-05	0	1	0.00723836
1	1	0	0	0	1	0	1346.58	10	0.729634	10.0004	7.59544e-05	-2.3872e-05	2	2.10985e-05	1.46616e-08	-7.40691e-12	649.48	0.000000000000000E+000	0.000000000000000E+000	2.10985e-05	2.10985e-05	0	1	0.00729661
1	1	0	0	0	1	0	1346.58	10	0.73754	10.0007	9.1955e-05	-7.87141e-06	2	2.55431e-05	1.79264e-08	-7.40691e-12	736.462	0.000000000000000E+000	0.000000000000000E+000	2.55431e-05	2.55431e-05	0	1	0.00737595
1	1	0	0	0	1	0	1346.58	10	0.745579	10.0004	0.000111956	1.21293e-05	2	3.10988e-05	2.20518e-08	-7.40691e-12	842.357	0.000000000000000E+000	0.000000000000000E+000	3.10988e-05	3.10988e-05	0	1	0.00745606
1	1	0	0	0	1	0	1346.58	10	0.752645	10.0001	0.000131957	3.21301e-05	2	3.66546e-05	2.62183e-08	-7.40691e-12	942.688	0.000000000000000E+000	0.000000000000000E+000	3.66546e-05	3.66546e-05	0	1	0.00752653
1	1	0	0	0	1	0	1346.58	10	0.758679	10.0001	0.000151958	5.21312e-05	2	4.22104e-05	3.04199e-08	-7.40691e-12	1040.68	0.000000000000000E+000	0.000000000000000E+000	4.22104e-05	4.22104e-05	0	1	0.00758687
1	1	0	0	0	1	0	1346.59	10	0.765725	10.0002	0.000179959	8.01324e-05	2	4.99886e-05	3.63544e-08	-7.40691e-12	1175.67	0.000000000000000E+000	0.000000000000000E+000	4.99886e-05	4.99886e-05	0	1	0.00765743
1	1	0	0	0	1	0	1346.59	10	0.771741	9.99954	0.00020796	0.000108133	2	5.77666e-05	4.23392e-08	-7.40691e-12	1307.19	0.000000000000000E+000	0.000000000000000E+000	5.77666e-05	5.77666e-05	0	1	0.00771705
1	1	0	0	0	1	0	1346.59	10	0.777546	9.99934	0.00023796	0.000138134	2	6.61001e-05	4.88001e-08	-7.40691e-12	1443.08	0.000000000000000E+000	0.000000000000000E+000	6.61001e-05	6.61001e-05	0	1	0.00777495
1	1	0	0	0	1	0	1346.59	10	0.783561	10.0008	0.000273962	0.000174136	2	7.61006e-05	5.66129e-08	-7.40691e-12	1602.91	0.000000000000000E+000	0.000000000000000E+000	7.61006e-05	7.61006e-05	0	1	0.00783624
1	1	0	0	0	1	0	1346.6	10	0.789213	10	0.000313963	0.000214137	2	8.72121e-05	6.53575e-08	-7.40691e-12	1778.12	0.000000000000000E+000	0.000000000000000E+000	8.72121e-05	8.72121e-05	0	1	0.00789217
1	1	0	0	0	1	0	1346.6	10	0.795248	10.0003	0.000359965	0.000260139	2	9.99903e-05	7.54902e-08	-7.40691e-12	1971.25	0.000000000000000E+000	0.000000000000000E+000	9.99903e-05	9.99903e-05	0	1	0.00795271
1	1	0	0	0	1	0	1346.61	10	0.800652	10.0004	0.000407967	0.000308141	2	0.000113324	8.61367e-08	-7.40691e-12	2169.88	0.000000000000000E+000	0.000000000000000E+000	0.000113324	0.000113324	0	1	0.00800686
1	0	0	1	0	1	1	1346.61	-10	0.159239	-10.0026	-7.95843e-06	0.000300182	3	-2.21068e-06	8.61394e-08	-3.93971e-10	2170.11	244.718	2.21068e-06	0.000000000000000E+000	2.21068e-06	0	1	-0.00159282
1	0	0	1	0	1	1	1346.61	-10	0.133517	-10.0025	-1.79614e-05	0.000290179	3	-4.98929e-06	8.61394e-08	-7.89742e-10	2170.11	307.991	4.98929e-06	0.000000000000000E+000	4.98929e-06	0	1	-0.0013355
1	0	0	1	0	1	1	1346.61	-10	0.11761	-10.0038	-2.79647e-05	0.000280176	3	-7.76797e-06	8.61394e-08	-1.13283e-09	2170.11	376.489	7.76797e-06	0.000000000000000E+000	7.76797e-06	0	1	-0.00117655
1	0	0	1	0	1	1	1346.61	-10	0.105962	-10.0029	-3.79677e-05	0.000270173	3	-1.05466e-05	8.61394e-08	-1.4395e-09	2170.11	441.686	1.05466e-05	0.000000000000000E+000	1.05466e-05	0	1	-0.00105993
1	0	0	1	0	1	1	1346.61	-10	0.0965284	-10.0034	-4.79709e-05	0.00026017	3	-1.33252e-05	8.61394e-08	-1.71777e-09	2170.11	502.74	1.33252e-05	0.000000000000000E+000	1.33252e-05	0	1	-0.000965614
1	0	0	1	0	1	1	1346.61	-10	0.08868	-10.004	-5.79743e-05	0.000250167	3	-1.6104e-05	8.61394e-08	-1.97274e-09	2170.11	561.3	1.6104e-05	0.000000000000000E+000	1.6104e-05	0	1	-0.000887159
1	0	0	1	0	1	1	1346.62	-10	0.0819201	-10.0027	-6.79779e-05	0.000240163	3	-1.88827e-05	8.61394e-08	-2.20767e-09	2170.11	617.642	1.88827e-05	0.000000000000000E+000	1.88827e-05	0	1	-0.000819423
1	0	0	1	0	1	1	1346.62	-10	0.0761722	-10.0033	-7.79811e-05	0.00023016	3	-2.16614e-05	8.61394e-08	-2.4254e-09	2170.11	673.295	2.16614e-05	0.000000000000000E+000	2.16614e-05	0	1	-0.000761972
1	0	0	1	0	1	1	1346.62	-10	0.0696796	-10.0031	-8.9985e-05	0.000218156	3	-2.49958e-05	8.61394e-08	-2.66578e-09	2170.11	735.629	2.49958e-05	0.000000000000000E+000	2.49958e-05	0	1	-0.000697011
1	0	0	1	0	1	1	1346.62	-10	0.0623086	-10.004	-0.00010599	0.00020215	3	-2.94418e-05	8.61394e-08	-2.95531e-09	2170.11	817.152	2.94418e-05	0.000000000000000E+000	2.94418e-05	0	1	-0.000623338
1	0	0	1	0	1	1	1346.62	-10	0.0544411	-10.0042	-0.000125998	0.000182143	3	-3.49993e-05	8.61394e-08	-3.27504e-09	2170.11	915.771	3.49993e-05	0.000000000000000E+000	3.49993e-05	0	1	-0.000544638
1	0	0	1	0	1	1	1346.62	-10	0.0477575	-10.0036	-0.000146004	0.000162136	3	-4.05568e-05	8.61394e-08	-3.55461e-09	2170.11	1011.96	4.05568e-05	0.000000000000000E+000	4.05568e-05	0	1	-0.000477747
1	0	0	1	0	1	1	1346.63	-10	0.0415895	-10.0037	-0.000166011	0.000142129	3	-4.61143e-05	8.61394e-08	-3.79886e-09	2170.11	1103.4	4.61143e-05	0.000000000000000E+000	4.61143e-05	0	1	-0.000416048
1	0	0	1	0	1	1	1346.63	-10	0.0350969	-10.0037	-0.000190019	0.000118121	3	-5.27832e-05	8.61394e-08	-4.0496e-09	2170.11	1210.67	5.27832e-05	0.000000000000000E+000	5.27832e-05	0	1	-0.000351098
1	0	0	1	0	1	1	1346.63	-10	0.0280314	-10.0032	-0.00022003	8.81111e-05	3	-6.11194e-05	8.61394e-08	-4.30607e-09	2170.11	1341.43	6.11194e-05	0.000000000000000E+000	6.11194e-05	0	1	-0.000280404
1	0	0	1	0	1	1	1346.63	-10	0.0218253	-10.0034	-0.00025004	5.81013e-05	3	-6.94554e-05	8.61394e-08	-4.50816e-09	2170.11	1468.76	6.94554e-05	0.000000000000000E+000	6.94554e-05	0	1	-0.000218327
1	0	0	1	0	1	1	1346.64	-10	0.0153517	-10.0036	-0.000284051	2.409e-05	3	-7.8903e-05	8.61394e-08	-4.67715e-09	2170.11	1607.37	7.8903e-05	0.000000000000000E+000	7.8903e-05	0	1	-0.000153573
1	0	0	1	0	1	1	1346.64	-10	0.00943201	-10.0033	-0.000320063	-1.19221e-05	3	-8.89064e-05	8.61394e-08	-4.79542e-09	2170.11	1752.41	8.89064e-05	0.000000000000000E+000	8.89064e-05	0	1	-9.43517e-05
1	0	0	1	0	1	1	1346.64	-10	0.00349318	-10.0026	-0.000360076	-5.19351e-05	3	-0.000100021	8.61394e-08	-4.86014e-09	2170.11	1909.36	0.000100021	0.000000000000000E+000	0.000100021	0	1	-3.49411e-05
1	1	0	0	1	0	0	1346.65	10	0.578852	9.77298	-4.60617e-08	-8.1991e-05	4	-1.27956e-08	0.000000000000000E+000	-7.40675e-12	0.000000000000000E+000	0.000000000000000E+000	1.27956e-08	0.000000000000000E+000	1.27956e-08	0	2	0.00565711
1	1	0	0	0	0	0	1346.65	10	0.653594	9.99934	9.9529e-06	-7.1992e-05	4	2.76469e-06	1.76536e-09	-7.40675e-12	239.328	0.000000000000000E+000	0.000000000000000E+000	2.76469e-06	2.76469e-06	0	2	0.00653551
1	1	0	0	0	0	0	1346.65	10	0.677311	9.99928	1.99525e-05	-6.19924e-05	4	5.54237e-06	3.62333e-09	-7.40675e-12	305.338	0.000000000000000E+000	0.000000000000000E+000	5.54237e-06	5.54237e-06	0	2	0.00677263
1	1	0	0	0	0	0	1346.65	10	0.692263	10.0002	2.99525e-05	-5.19924e-05	4	8.32013e-06	5.53074e-09	-7.40675e-12	372.891	0.000000000000000E+000	0.000000000000000E+000	8.32013e-06	8.32013e-06	0	2	0.00692275
1	1	0	0	0	0	0	1346.65	10	0.703415	10	3.99524e-05	-4.19925e-05	4	1.10979e-05	7.47286e-09	-7.40675e-12	436.662	0.000000000000000E+000	0.000000000000000E+000	1.10979e-05	1.10979e-05	0	2	0.00703419
1	1	0	0	0	0	0	1346.65	10	0.712314	10.0012	4.9953e-05	-3.19919e-05	4	1.38758e-05	9.44201e-09	-7.40675e-12	497.506	0.000000000000000E+000	0.000000000000000E+000	1.38758e-05	1.38758e-05	0	2	0.00712399
1	1	0	0	0	0	0	1346.65	10	0.719609	10	5.99534e-05	-2.19915e-05	4	1.66537e-05	1.14333e-08	-7.40675e-12	556.613	0.000000000000000E+000	0.000000000000000E+000	1.66537e-05	1.66537e-05	0	2	0.00719612
1	1	0	0	0	0	0	1346.66	10	0.727171	10.0013	7.19538e-05	-9.99115e-06	4	1.99872e-05	1.38479e-08	-7.40675e-12	624.154	0.000000000000000E+000	0.000000000000000E+000	1.99872e-05	1.99872e-05	0	2	0.00727262
1	1	0	0	0	0	0	1346.66	10	0.73437	10.0004	8.59542e-05	4.00929e-06	4	2.38762e-05	1.66934e-08	-7.40675e-12	701.727	0.000000000000000E+000	0.000000000000000E+000	2.38762e-05	2.38762e-05	0	2	0.00734401
1	1	0	0	0	0	0	1346.66	10	0.742581	9.99915	0.000103955	2.20097e-05	4	2.88763e-05	2.03906e-08	-7.40675e-12	795.317	0.000000000000000E+000	0.000000000000000E+000	2.88763e-05	2.88763e-05	0	2	0.00742518
1	1	0	0	0	0	0	1346.66	10	0.749723	10.0007	0.000123956	4.20106e-05	4	3.44321e-05	2.45403e-08	-7.40675e-12	899.16	0.000000000000000E+000	0.000000000000000E+000	3.44321e-05	3.44321e-05	0	2	0.00749779
1	1	0	0	0	0	0	1346.66	10	0.756025	10.0007	0.000143957	6.20117e-05	4	3.9988e-05	2.87273e-08	-7.40675e-12	998.564	0.000000000000000E+000	0.000000000000000E+000	3.9988e-05	3.9988e-05	0	2	0.00756081
1	1	0	0	0	0	0	1346.67	10	0.763128	10.0004	0.000169957	8.80125e-05	4	4.72104e-05	3.42198e-08	-7.40675e-12	1123.52	0.000000000000000E+000	0.000000000000000E+000	4.72104e-05	4.72104e-05	0	2	0.00763156
1	1	0	0	0	0	0	1346.67	10	0.770022	10.0006	0.000199958	0.000118014	4	5.5544e-05	4.06148e-08	-7.40675e-12	1264.19	0.000000000000000E+000	0.000000000000000E+000	5.5544e-05	5.5544e-05	0	2	0.00770065
1	1	0	0	0	0	0	1346.67	10	0.776056	10.0006	0.00022996	0.000148015	4	6.38778e-05	4.70625e-08	-7.40675e-12	1400.41	0.000000000000000E+000	0.000000000000000E+000	6.38778e-05	6.38778e-05	0	2	0.00776099
1	1	0	0	0	0	0	1346.67	10	0.781804	10.0002	0.000263961	0.000182017	4	7.33226e-05	5.44255e-08	-7.40675e-12	1553.08	0.000000000000000E+000	0.000000000000000E+000	7.33226e-05	7.33226e-05	0	2	0.00781818
1	1	0	0	0	0	0	1346.68	10	0.787456	9.99992	0.000301963	0.000220018	4	8.38787e-05	6.27156e-08	-7.40675e-12	1719.46	0.000000000000000E+000	0.000000000000000E+000	8.38787e-05	8.38787e-05	0	2	0.0078745
1	1	0	0	0	0	0	1346.68	10	0.793052	10.0004	0.000341965	0.00026002	4	9.49903e-05	7.15043e-08	-7.40675e-12	1887.1	0.000000000000000E+000	0.000000000000000E+000	9.49903e-05	9.49903e-05	0	2	0.00793086
1	1	0	0	0	0	0	1346.69	10	0.79878	10.0009	0.000391967	0.000310022	4	0.00010888	8.25683e-08	-7.40675e-12	2096.71	0.000000000000000E+000	0.000000000000000E+000	0.00010888	0.00010888	0	2	0.0079885
1	0	0	1	0	0	1	1346.69	-10	0.176979	-10.0023	-3.9574e-06	0.000320066	5	-1.09928e-06	8.56827e-08	-2.12096e-10	2150.74	280.564	1.09928e-06	0.000000000000000E+000	1.09928e-06	0	2	-0.00177021
1	0	0	1	0	0	1	1346.69	-10	0.1419	-10.0026	-1.396e-05	0.000310063	5	-3.87779e-06	8.56827e-08	-6.3851e-10	2150.74	283.81	3.87779e-06	0.000000000000000E+000	3.87779e-06	0	2	-0.00141937
1	0	0	1	0	0	1	1346.69	-10	0.123339	-10.0035	-2.39636e-05	0.000300059	5	-6.65656e-06	8.56827e-08	-9.99919e-10	2150.74	353.387	6.65656e-06	0.000000000000000E+000	6.65656e-06	0	2	-0.00123383
1	0	0	1	0	0	1	1346.69	-10	0.110239	-10.0035	-3.3967e-05	0.000290056	5	-9.43528e-06	8.56827e-08	-1.31971e-09	2150.74	419.6	9.43528e-06	0.000000000000000E+000	9.43528e-06	0	2	-0.00110278
1	0	0	1	0	0	1	1346.69	-10	0.0999657	-10.0035	-4.39703e-05	0.000280053	5	-1.2214e-05	8.56827e-08	-1.60856e-09	2150.74	481.856	1.2214e-05	0.000000000000000E+000	1.2214e-05	0	2	-0.00100001
1	0	0	1	0	0	1	1346.69	-10	0.0917354	-10.0035	-5.39737e-05	0.000270049	5	-1.49927e-05	8.56827e-08	-1.87238e-09	2150.74	542.433	1.49927e-05	0.000000000000000E+000	1.49927e-05	0	2	-0.000917672
1	0	0	1	0	0	1	1346.7	-10	0.0845744	-10.0035	-6.39771e-05	0.000260046	5	-1.77714e-05	8.56827e-08	-2.11514e-09	2150.74	599.712	1.77714e-05	0.000000000000000E+000	1.77714e-05	0	2	-0.000846038
1	0	0	1	0	0	1	1346.7	-10	0.0784064	-10.0035	-7.39806e-05	0.000250042	5	-2.05502e-05	8.56827e-08	-2.33963e-09	2150.74	655.506	2.05502e-05	0.000000000000000E+000	2.05502e-05	0	2	-0.000784342
1	0	0	1	0	0	1	1346.7	-10	0.0717419	-10.0035	-8.59848e-05	0.000238038	5	-2.38847e-05	8.56827e-08	-2.5873e-09	2150.74	719.316	2.38847e-05	0.000000000000000E+000	2.38847e-05	0	2	-0.000717669
1	0	0	1	0	0	1	1346.7	-10	0.0634543	-10.0035	-0.000103991	0.000220032	5	-2.88864e-05	8.56827e-08	-2.92053e-09	2150.74	813.455	2.88864e-05	0.000000000000000E+000	2.88864e-05	0	2	-0.000634764
1	0	0	1	0	0	1	1346.7	-10	0.0553386	-10.0042	-0.000123998	0.000200025	5	-3.44439e-05	8.56827e-08	-3.24539e-09	2150.74	911.974	3.44439e-05	0.000000000000000E+000	3.44439e-05	0	2	-0.00055362
1	0	0	1	0	0	1	1346.7	-10	0.0484449	-10.0039	-0.000144005	0.000180018	5	-4.00014e-05	8.56827e-08	-3.52946e-09	2150.74	1007.95	4.00014e-05	0.000000000000000E+000	4.00014e-05	0	2	-0.000484639
1	0	0	1	0	0	1	1346.71	-10	0.0417805	-10.0033	-0.000166013	0.00015801	5	-4.61146e-05	8.56827e-08	-3.8005e-09	2150.74	1110.14	4.61146e-05	0.000000000000000E+000	4.61146e-05	0	2	-0.000417942
1	0	0	1	0	0	1	1346.71	-10	0.0354406	-10.0031	-0.000190021	0.000134002	5	-5.27836e-05	8.56827e-08	-4.05281e-09	2150.74	1218.95	5.27836e-05	0.000000000000000E+000	5.27836e-05	0	2	-0.000354516
1	0	0	1	0	0	1	1346.71	-10	0.0291963	-10.003	-0.00021603	0.000107993	5	-6.00084e-05	8.56827e-08	-4.28094e-09	2150.74	1332.37	6.00084e-05	0.000000000000000E+000	6.00084e-05	0	2	-0.000292049
1	0	0	1	0	0	1	1346.71	-10	0.0231429	-10.003	-0.000244039	7.99835e-05	5	-6.77887e-05	8.56827e-08	-4.47975e-09	2150.74	1450.9	6.77887e-05	0.000000000000000E+000	6.77887e-05	0	2	-0.000231499
1	0	0	1	0	0	1	1346.72	-10	0.0175096	-10.0037	-0.00027405	4.99732e-05	5	-7.61249e-05	8.56827e-08	-4.64469e-09	2150.74	1576.48	7.61249e-05	0.000000000000000E+000	7.61249e-05	0	2	-0.00017516
1	0	0	1	0	0	1	1346.72	-10	0.0113607	-10.0036	-0.000310062	1.3961e-05	5	-8.61283e-05	8.56827e-08	-4.78149e-09	2150.74	1722.66	8.61283e-05	0.000000000000000E+000	8.61283e-05	0	2	-0.000113648
1	0	0	1	0	0	1	1346.72	-10	0.00549825	-10.004	-0.000348075	-2.40522e-05	5	-9.66875e-05	8.56827e-08	-4.8632e-09	2150.74	1872.81	9.66875e-05	0.000000000000000E+000	9.66875e-05	0	2	-5.50048e-05
1	0	0	1	0	0	1	1346.73	-10	-2.04619e-05	-10.0039	-0.000388088	-6.40653e-05	5	-0.000107802	8.56827e-08	-4.88683e-09	2150.74	2027.85	0.000107802	0.000000000000000E+000	0.000107802	0	2	2.04699e-07
1	1	0	0	0	1	0	1346.73	10	0.638337	9.99941	5.95346e-06	-6.01127e-05	6	1.65374e-06	1.04359e-09	-7.41233e-12	233.993	0.000000000000000E+000	0.000000000000000E+000	1.65374e-06	1.65374e-06	0	3	0.00638299
1	1	0	0	0	1	0	1346.73	10	0.669482	10.0008	1.59533e-05	-5.01128e-05	6	4.43148e-06	2.8739e-09	-7.41233e-12	281.754	0.000000000000000E+000	0.000000000000000E+000	4.43148e-06	4.43148e-06	0	3	0.00669536
1	1	0	0	0	1	0	1346.73	10	0.687012	10.0002	2.59533e-05	-4.01129e-05	6	7.20924e-06	4.76427e-09	-7.41233e-12	349.853	0.000000000000000E+000	0.000000000000000E+000	7.20924e-06	7.20924e-06	0	3	0.00687028
1	1	0	0	0	1	0	1346.73	10	0.699195	10	3.59533e-05	-3.01129e-05	6	9.98702e-06	6.69385e-09	-7.41233e-12	416.186	0.000000000000000E+000	0.000000000000000E+000	9.98702e-06	9.98702e-06	0	3	0.00699198
1	1	0	0	0	1	0	1346.73	10	0.709049	10.0007	4.59535e-05	-2.01126e-05	6	1.27649e-05	8.6532e-09	-7.41233e-12	477.413	0.000000000000000E+000	0.000000000000000E+000	1.27649e-05	1.27649e-05	0	3	0.00709097
1	1	0	0	0	1	0	1346.73	10	0.71705	10	5.59536e-05	-1.01125e-05	6	1.55427e-05	1.06364e-08	-7.41233e-12	536.637	0.000000000000000E+000	0.000000000000000E+000	1.55427e-05	1.55427e-05	0	3	0.00717053
1	1	0	0	0	1	0	1346.74	10	0.725013	10.0006	6.79538e-05	1.88766e-06	6	1.88761e-05	1.30429e-08	-7.41233e-12	605.434	0.000000000000000E+000	0.000000000000000E+000	1.88761e-05	1.88761e-05	0	3	0.00725053
1	1	0	0	0	1	0	1346.74	10	0.730551	9.99947	7.79541e-05	1.1888e-05	6	2.16539e-05	1.50661e-08	-7.41233e-12	661.839	0.000000000000000E+000	0.000000000000000E+000	2.16539e-05	2.16539e-05	0	3	0.00730512
1	1	0	0	0	1	0	1346.74	10	0.739048	10.0002	9.59546e-05	2.98885e-05	6	2.66541e-05	1.87457e-08	-7.41233e-12	759.791	0.000000000000000E+000	0.000000000000000E+000	2.66541e-05	2.66541e-05	0	3	0.00739066
1	1	0	0	0	1	0	1346.74	10	0.746381	9.99973	0.000113956	4.78896e-05	6	3.16544e-05	2.24639e-08	-7.41233e-12	852.769	0.000000000000000E+000	0.000000000000000E+000	3.16544e-05	3.16544e-05	0	3	0.00746361
1	1	0	0	0	1	0	1346.74	10	0.753141	10.0007	0.000133957	6.78906e-05	6	3.72102e-05	2.66333e-08	-7.41233e-12	954.136	0.000000000000000E+000	0.000000000000000E+000	3.72102e-05	3.72102e-05	0	3	0.00753197
1	1	0	0	0	1	0	1346.74	10	0.759557	10.0006	0.000155957	8.98912e-05	6	4.33215e-05	3.12603e-08	-7.41233e-12	1062.26	0.000000000000000E+000	0.000000000000000E+000	4.33215e-05	4.33215e-05	0	3	0.00759599
1	1	0	0	0	1	0	1346.75	10	0.766527	10.0004	0.000183958	0.000117892	6	5.10996e-05	3.7202e-08	-7.41233e-12	1196.15	0.000000000000000E+000	0.000000000000000E+000	5.10996e-05	5.10996e-05	0	3	0.0076656
1	1	0	0	0	1	0	1346.75	10	0.772963	10.0003	0.00021396	0.000147893	6	5.94332e-05	4.36236e-08	-7.41233e-12	1335.32	0.000000000000000E+000	0.000000000000000E+000	5.94332e-05	5.94332e-05	0	3	0.00772986
1	1	0	0	0	1	0	1346.75	10	0.779398	9.99979	0.00024796	0.000181894	6	6.88778e-05	5.09616e-08	-7.41233e-12	1487.73	0.000000000000000E+000	0.000000000000000E+000	6.88778e-05	6.88778e-05	0	3	0.00779382
1	1	0	0	0	1	0	1346.76	10	0.785776	9.99998	0.000287962	0.000221896	6	7.99894e-05	5.96649e-08	-7.41233e-12	1664.03	0.000000000000000E+000	0.000000000000000E+000	7.99894e-05	7.99894e-05	0	3	0.00785775
1	1	0	0	0	1	0	1346.76	10	0.79139	10.0004	0.000327963	0.000261897	6	9.1101e-05	6.84333e-08	-7.41233e-12	1835.6	0.000000000000000E+000	0.000000000000000E+000	9.1101e-05	9.1101e-05	0	3	0.00791419
1	1	0	0	0	1	0	1346.77	10	0.797214	10.0001	0.000375965	0.000309899	6	0.000104435	7.90339e-08	-7.41233e-12	2037.81	0.000000000000000E+000	0.000000000000000E+000	0.000104435	0.000104435	0	3	0.00797223
1	0	0	1	0	1	1	1346.77	-10	0.191804	-10.0014	-1.9572e-06	0.000335943	7	-5.43668e-07	8.52544e-08	-1.13985e-10	2150.4	0.000000000000000E+000	5.43668e-07	0.000000000000000E+000	5.43668e-07	0	3	-0.0019183
1	0	0	1	0	1	1	1346.77	-10	0.14677	-10.0023	-1.19595e-05	0.00032594	7	-3.32208e-06	8.52544e-08	-5.59865e-10	2150.4	267.543	3.32208e-06	0.000000000000000E+000	3.32208e-06	0	3	-0.00146803
1	0	0	1	0	1	1	1346.77	-10	0.12649	-10.003	-2.19623e-05	0.000315938	7	-6.10065e-06	8.52544e-08	-9.31722e-10	2150.4	337.622	6.10065e-06	0.000000000000000E+000	6.10065e-06	0	3	-0.00126528
1	0	0	1	0	1	1	1346.77	-10	0.112512	-10.0031	-3.19656e-05	0.000305934	7	-8.87932e-06	8.52544e-08	-1.25902e-09	2150.4	404.26	8.87932e-06	0.000000000000000E+000	8.87932e-06	0	3	-0.00112546
1	0	0	1	0	1	1	1346.77	-10	0.101952	-10.0036	-4.19688e-05	0.000295931	7	-1.1658e-05	8.52544e-08	-1.55369e-09	2150.4	468.079	1.1658e-05	0.000000000000000E+000	1.1658e-05	0	3	-0.00101988
1	0	0	1	0	1	1	1346.77	-10	0.0934922	-10.0035	-5.19722e-05	0.000285928	7	-1.44367e-05	8.52544e-08	-1.82231e-09	2150.4	529.553	1.44367e-05	0.000000000000000E+000	1.44367e-05	0	3	-0.000935253
1	0	0	1	0	1	1	1346.78	-10	0.0860066	-10.0033	-6.19755e-05	0.000275924	7	-1.72154e-05	8.52544e-08	-2.06922e-09	2150.4	586.636	1.72154e-05	0.000000000000000E+000	1.72154e-05	0	3	-0.000860348
1	0	0	1	0	1	1	1346.78	-10	0.0795713	-10.0028	-7.19787e-05	0.000265921	7	-1.99941e-05	8.52544e-08	-2.29741e-09	2150.4	642.128	1.99941e-05	0.000000000000000E+000	1.99941e-05	0	3	-0.000795933
1	0	0	1	0	1	1	1346.78	-10	0.0729259	-10.0038	-8.39833e-05	0.000253917	7	-2.33287e-05	8.52544e-08	-2.54919e-09	2150.4	707.215	2.33287e-05	0.000000000000000E+000	2.33287e-05	0	3	-0.000729536
1	0	0	1	0	1	1	1346.78	-10	0.065173	-10.0035	-9.99885e-05	0.000237911	7	-2.77746e-05	8.52544e-08	-2.8522e-09	2150.4	790.309	2.77746e-05	0.000000000000000E+000	2.77746e-05	0	3	-0.00065196
1	0	0	1	0	1	1	1346.78	-10	0.0569044	-10.0035	-0.000119996	0.000217904	7	-3.33321e-05	8.52544e-08	-3.18651e-09	2150.4	890.179	3.33321e-05	0.000000000000000E+000	3.33321e-05	0	3	-0.000569246
1	0	0	1	0	1	1	1346.78	-10	0.0499917	-10.0035	-0.000140003	0.000197897	7	-3.88896e-05	8.52544e-08	-3.47903e-09	2150.4	987.868	3.88896e-05	0.000000000000000E+000	3.88896e-05	0	3	-0.000500091
1	0	0	1	0	1	1	1346.79	-10	0.0435946	-10.0042	-0.00016001	0.00017789	7	-4.44473e-05	8.52544e-08	-3.73499e-09	2150.4	1080.22	4.44473e-05	0.000000000000000E+000	4.44473e-05	0	3	-0.000436131
1	0	0	1	0	1	1	1346.79	-10	0.0374839	-10.0032	-0.000182018	0.000155882	7	-5.05605e-05	8.52544e-08	-3.97878e-09	2150.4	1180.06	5.05605e-05	0.000000000000000E+000	5.05605e-05	0	3	-0.000374957
1	0	0	1	0	1	1	1346.79	-10	0.0311632	-10.0026	-0.000208027	0.000129873	7	-5.77852e-05	8.52544e-08	-4.22153e-09	2150.4	1295.53	5.77852e-05	0.000000000000000E+000	5.77852e-05	0	3	-0.000311714
1	0	0	1	0	1	1	1346.79	-10	0.0254344	-10.0032	-0.000234036	0.000103864	7	-6.501e-05	8.52544e-08	-4.42127e-09	2150.4	1407.26	6.501e-05	0.000000000000000E+000	6.501e-05	0	3	-0.000254424
1	0	0	1	0	1	1	1346.8	-10	0.0194383	-10.0038	-0.000264047	7.38532e-05	7	-7.33463e-05	8.52544e-08	-4.60305e-09	2150.4	1532.42	7.33463e-05	0.000000000000000E+000	7.33463e-05	0	3	-0.000194456
1	0	0	1	0	1	1	1346.8	-10	0.0128311	-10.0034	-0.00030206	3.584e-05	7	-8.39055e-05	8.52544e-08	-4.76575e-09	2150.4	1688.24	8.39055e-05	0.000000000000000E+000	8.39055e-05	0	3	-0.000128355
1	0	0	1	0	1	1	1346.8	-10	0.00679678	-10.0034	-0.000340073	-2.17332e-06	7	-9.44648e-05	8.52544e-08	-4.86317e-09	2150.4	1838.64	9.44648e-05	0.000000000000000E+000	9.44648e-05	0	3	-6.79909e-05
1	0	0	1	0	1	1	1346.81	-10	0.00122077	-10.0031	-0.000380087	-4.21868e-05	7	-0.00010558	8.52544e-08	-4.90136e-09	2150.4	1994.8	0.00010558	0.000000000000000E+000	0.00010558	0	3	-1.22115e-05
1	1	0	0	0	0	0	1346.81	10	0.627528	9.99979	3.95356e-06	-5.02372e-05	8	1.09821e-06	6.88525e-10	-7.3911e-12	257.15	0.000000000000000E+000	0.000000000000000E+000	1.09821e-06	1.09821e-06	0	4	0.00627515
1	1	0	0	0	0	0	1346.81	10	0.664937	9.99998	1.39534e-05	-4.02374e-05	8	3.87595e-06	2.50133e-09	-7.3911e-12	264.328	0.000000000000000E+000	0.000000000000000E+000	3.87595e-06	3.87595e-06	0	4	0.00664936
1	1	0	0	0	0	0	1346.81	10	0.683918	9.9996	2.39532e-05	-3.02376e-05	8	6.65366e-06	4.38175e-09	-7.3911e-12	333.583	0.000000000000000E+000	0.000000000000000E+000	6.65366e-06	6.65366e-06	0	4	0.00683891
1	1	0	0	0	0	0	1346.81	10	0.697114	10.0002	3.39536e-05	-2.02372e-05	8	9.43154e-06	6.30449e-09	-7.3911e-12	399.343	0.000000000000000E+000	0.000000000000000E+000	9.43154e-06	9.43154e-06	0	4	0.0069713
1	1	0	0	0	0	0	1346.81	10	0.707254	9.99998	4.39536e-05	-1.02371e-05	8	1.22093e-05	8.25833e-09	-7.3911e-12	461.799	0.000000000000000E+000	0.000000000000000E+000	1.22093e-05	1.22093e-05	0	4	0.00707252
1	1	0	0	0	0	0	1346.81	10	0.715331	9.99954	5.3954e-05	-2.36737e-07	8	1.49872e-05	1.02369e-08	-7.3911e-12	522.465	0.000000000000000E+000	0.000000000000000E+000	1.49872e-05	1.49872e-05	0	4	0.00715298
1	1	0	0	0	0	0	1346.82	10	0.722263	9.99954	6.39546e-05	9.76384e-06	8	1.77652e-05	1.2236e-08	-7.3911e-12	580.304	0.000000000000000E+000	0.000000000000000E+000	1.77652e-05	1.77652e-05	0	4	0.00722229
1	1	0	0	0	0	0	1346.82	10	0.72824	10.0006	7.39549e-05	1.97641e-05	8	2.0543e-05	1.42525e-08	-7.3911e-12	636.485	0.000000000000000E+000	0.000000000000000E+000	2.0543e-05	2.0543e-05	0	4	0.00728285
1	1	0	0	0	0	0	1346.82	10	0.73542	10.0004	8.79553e-05	3.37645e-05	8	2.4432e-05	1.71021e-08	-7.3911e-12	712.878	0.000000000000000E+000	0.000000000000000E+000	2.4432e-05	2.4432e-05	0	4	0.00735452
1	1	0	0	0	0	0	1346.82	10	0.743268	10.0003	0.000105956	5.1765e-05	8	2.94322e-05	2.08037e-08	-7.3911e-12	807.365	0.000000000000000E+000	0.000000000000000E+000	2.94322e-05	2.94322e-05	0	4	0.00743291
1	1	0	0	0	0	0	1346.82	10	0.75043	10.0006	0.000125957	7.1766e-05	8	3.4988e-05	2.49577e-08	-7.3911e-12	910.066	0.000000000000000E+000	0.000000000000000E+000	3.4988e-05	3.4988e-05	0	4	0.00750471
1	1	0	0	0	0	0	1346.82	10	0.756597	9.99998	0.000145957	9.17665e-05	8	4.05437e-05	2.91482e-08	-7.3911e-12	1009.55	0.000000000000000E+000	0.000000000000000E+000	4.05437e-05	4.05437e-05	0	4	0.00756596
1	1	0	0	0	0	0	1346.83	10	0.763014	10.0012	0.000169958	0.000115768	8	4.72107e-05	3.42197e-08	-7.3911e-12	1125.57	0.000000000000000E+000	0.000000000000000E+000	4.72107e-05	4.72107e-05	0	4	0.00763105
1	1	0	0	0	0	0	1346.83	10	0.769277	10.0006	0.000195959	0.000141769	8	5.44332e-05	3.97588e-08	-7.3911e-12	1246.04	0.000000000000000E+000	0.000000000000000E+000	5.44332e-05	5.44332e-05	0	4	0.0076932
1	1	0	0	0	0	0	1346.83	10	0.77535	9.99998	0.000225961	0.00017177	8	6.27669e-05	4.62008e-08	-7.3911e-12	1383.37	0.000000000000000E+000	0.000000000000000E+000	6.27669e-05	6.27669e-05	0	4	0.00775348
1	1	0	0	0	0	0	1346.83	10	0.781288	10.0009	0.000259962	0.000205771	8	7.22117e-05	5.35581e-08	-7.3911e-12	1535.66	0.000000000000000E+000	0.000000000000000E+000	7.22117e-05	7.22117e-05	0	4	0.00781362
1	1	0	0	0	0	0	1346.84	10	0.786826	10.0004	0.000295964	0.000241773	8	8.22122e-05	6.14054e-08	-7.3911e-12	1692.93	0.000000000000000E+000	0.000000000000000E+000	8.22122e-05	8.22122e-05	0	4	0.0078686
1	1	0	0	0	0	0	1346.84	10	0.792498	10.0004	0.000335965	0.000281774	8	9.33237e-05	7.01862e-08	-7.3911e-12	1861.32	0.000000000000000E+000	0.000000000000000E+000	9.33237e-05	9.33237e-05	0	4	0.00792532
1	1	0	0	0	0	0	1346.85	10	0.798093	10.0004	0.000381967	0.000327777	8	0.000106102	8.03549e-08	-7.3911e-12	2052.54	0.000000000000000E+000	0.000000000000000E+000	0.000106102	0.000106102	0	4	0.00798127
1	0	0	1	0	0	1	1346.85	-10	0.176979	-10.0012	-3.95721e-06	0.000343821	9	-1.09923e-06	8.48009e-08	-2.1194e-10	2133.74	285.304	1.09923e-06	0.000000000000000E+000	1.09923e-06	0	4	-0.00177002
1	0	0	1	0	0	1	1346.85	-10	0.141786	-10.0032	-1.396e-05	0.000333818	9	-3.87778e-06	8.48009e-08	-6.37893e-10	2133.74	284.532	3.87778e-06	0.000000000000000E+000	3.87778e-06	0	4	-0.0014183
1	0	0	1	0	0	1	1346.85	-10	0.123053	-10.0038	-2.39635e-05	0.000323814	9	-6.65654e-06	8.48009e-08	-9.9894e-10	2133.74	353.147	6.65654e-06	0.000000000000000E+000	6.65654e-06	0	4	-0.00123099
1	0	0	1	0	0	1	1346.85	-10	0.110239	-10.0032	-3.39666e-05	0.000313811	9	-9.43518e-06	8.48009e-08	-1.31862e-09	2133.74	420.842	9.43518e-06	0.000000000000000E+000	9.43518e-06	0	4	-0.00110275
1	0	0	1	0	0	1	1346.85	-10	0.10008	-10.0034	-4.39701e-05	0.000303808	9	-1.22139e-05	8.48009e-08	-1.60738e-09	2133.74	483.732	1.22139e-05	0.000000000000000E+000	1.22139e-05	0	4	-0.00100114
1	0	0	1	0	0	1	1346.85	-10	0.0917354	-10.0032	-5.39734e-05	0.000293805	9	-1.49926e-05	8.48009e-08	-1.87113e-09	2133.74	543.742	1.49926e-05	0.000000000000000E+000	1.49926e-05	0	4	-0.000917643
1	0	0	1	0	0	1	1346.86	-10	0.084689	-10.0029	-6.39764e-05	0.000283802	9	-1.77712e-05	8.48009e-08	-2.11392e-09	2133.74	601.705	1.77712e-05	0.000000000000000E+000	1.77712e-05	0	4	-0.000847135
1	0	0	1	0	0	1	1346.86	-10	0.0785401	-10.0035	-7.39796e-05	0.000273798	9	-2.05499e-05	8.48009e-08	-2.33846e-09	2133.74	657.675	2.05499e-05	0.000000000000000E+000	2.05499e-05	0	4	-0.000785679
1	0	0	1	0	0	1	1346.86	-10	0.0717992	-10.0033	-8.59841e-05	0.000261794	9	-2.38845e-05	8.48009e-08	-2.58623e-09	2133.74	721.105	2.38845e-05	0.000000000000000E+000	2.38845e-05	0	4	-0.000718233
1	0	0	1	0	0	1	1346.86	-10	0.0633207	-10.0035	-0.00010399	0.000243788	9	-2.88861e-05	8.48009e-08	-2.91927e-09	2133.74	814.125	2.88861e-05	0.000000000000000E+000	2.88861e-05	0	4	-0.000633427
1	0	0	1	0	0	1	1346.86	-10	0.0554722	-10.0032	-0.000123997	0.000223781	9	-3.44435e-05	8.48009e-08	-3.24453e-09	2133.74	914.479	3.44435e-05	0.000000000000000E+000	3.44435e-05	0	4	-0.000554901
1	0	0	1	0	0	1	1346.86	-10	0.0483877	-10.0041	-0.000144004	0.000203774	9	-4.0001e-05	8.48009e-08	-3.52903e-09	2133.74	1009.23	4.0001e-05	0.000000000000000E+000	4.0001e-05	0	4	-0.000484076
1	0	0	1	0	0	1	1346.87	-10	0.0424106	-10.0037	-0.000164011	0.000183767	9	-4.55586e-05	8.48009e-08	-3.77833e-09	2133.74	1103.18	4.55586e-05	0.000000000000000E+000	4.55586e-05	0	4	-0.000424262
1	0	0	1	0	0	1	1346.87	-10	0.0357844	-10.0039	-0.000188019	0.000159759	9	-5.22276e-05	8.48009e-08	-4.03479e-09	2133.74	1210.65	5.22276e-05	0.000000000000000E+000	5.22276e-05	0	4	-0.000357984
1	0	0	1	0	0	1	1346.87	-10	0.0293108	-10.0039	-0.000216029	0.000131749	9	-6.00081e-05	8.48009e-08	-4.28259e-09	2133.74	1335.29	6.00081e-05	0.000000000000000E+000	6.00081e-05	0	4	-0.000293221
1	0	0	1	0	0	1	1346.87	-10	0.0234866	-10.0037	-0.000244038	0.00010374	9	-6.77884e-05	8.48009e-08	-4.48255e-09	2133.74	1455.95	6.77884e-05	0.000000000000000E+000	6.77884e-05	0	4	-0.000234952
1	0	0	1	0	0	1	1346.88	-10	0.0173186	-10.0039	-0.00027605	7.17284e-05	9	-7.66804e-05	8.48009e-08	-4.65754e-09	2133.74	1588.43	7.66804e-05	0.000000000000000E+000	7.66804e-05	0	4	-0.000173253
1	0	0	1	0	0	1	1346.88	-10	0.0115326	-10.0029	-0.000310061	3.77167e-05	9	-8.61281e-05	8.48009e-08	-4.78821e-09	2133.74	1726.61	8.61281e-05	0.000000000000000E+000	8.61281e-05	0	4	-0.000115359
1	0	0	1	0	0	1	1346.88	-10	0.00584198	-10.0032	-0.000348075	-2.96763e-07	9	-9.66874e-05	8.48009e-08	-4.87304e-09	2133.74	1878.71	9.66874e-05	0.000000000000000E+000	9.66874e-05	0	4	-5.84382e-05
1	0	0	1	0	0	1	1346.89	-10	-0.000364188	-10.0032	-0.00039209	-4.43117e-05	9	-0.000108914	8.48009e-08	-4.89843e-09	2133.74	2047.65	0.000108914	0.000000000000000E+000	0.000108914	0	4	3.64305e-06
1	1	0	0	0	1	0	1346.89	10	0.638012	9.99941	5.95314e-06	-4.03593e-05	10	1.65365e-06	1.04246e-09	-7.42182e-12	225.553	0.000000000000000E+000	0.000000000000000E+000	1.65365e-06	1.65365e-06	0	5	0.00637974
1	1	0	0	0	1	0	1346.89	10	0.669043	10	1.5953e-05	-3.03594e-05	10	4.4314e-06	2.87169e-09	-7.42182e-12	277.624	0.000000000000000E+000	0.000000000000000E+000	4.4314e-06	4.4314e-06	0	5	0.00669046
1	1	0	0	0	1	0	1346.89	10	0.686649	10.0004	2.59529e-05	-2.03596e-05	10	7.20913e-06	4.76105e-09	-7.42182e-12	345.569	0.000000000000000E+000	0.000000000000000E+000	7.20913e-06	7.20913e-06	0	5	0.00686679
1	1	0	0	0	1	0	1346.89	10	0.699062	10.0004	3.5953e-05	-1.03594e-05	10	9.98696e-06	6.69e-09	-7.42182e-12	410.726	0.000000000000000E+000	0.000000000000000E+000	9.98696e-06	9.98696e-06	0	5	0.00699087
1	1	0	0	0	1	0	1346.89	10	0.708705	10.0006	4.59533e-05	-3.59137e-07	10	1.27648e-05	8.64846e-09	-7.42182e-12	472.801	0.000000000000000E+000	0.000000000000000E+000	1.27648e-05	1.27648e-05	0	5	0.00708744
1	1	0	0	0	1	0	1346.89	10	0.716821	10.0002	5.59537e-05	9.64133e-06	10	1.55427e-05	1.06307e-08	-7.42182e-12	531.273	0.000000000000000E+000	0.000000000000000E+000	1.55427e-05	1.55427e-05	0	5	0.00716838
1	1	0	0	0	1	0	1346.9	10	0.723332	10	6.59536e-05	1.96412e-05	10	1.83204e-05	1.26328e-08	-7.42182e-12	589.711	0.000000000000000E+000	0.000000000000000E+000	1.83204e-05	1.83204e-05	0	5	0.00723336
1	1	0	0	0	1	0	1346.9	10	0.730207	10.001	7.7954e-05	3.16416e-05	10	2.16539e-05	1.50583e-08	-7.42182e-12	656.605	0.000000000000000E+000	0.000000000000000E+000	2.16539e-05	2.16539e-05	0	5	0.0073028
1	1	0	0	0	1	0	1346.9	10	0.73712	10.0003	9.19547e-05	4.56423e-05	10	2.5543e-05	1.79147e-08	-7.42182e-12	731.874	0.000000000000000E+000	0.000000000000000E+000	2.5543e-05	2.5543e-05	0	5	0.00737142
1	1	0	0	0	1	0	1346.9	10	0.743956	10.0004	0.000107955	6.16429e-05	10	2.99876e-05	2.12095e-08	-7.42182e-12	814.845	0.000000000000000E+000	0.000000000000000E+000	2.99876e-05	2.99876e-05	0	5	0.00743988
1	1	0	0	0	1	0	1346.9	10	0.750907	9.99973	0.000127956	8.16433e-05	10	3.55433e-05	2.5366e-08	-7.42182e-12	917.621	0.000000000000000E+000	0.000000000000000E+000	3.55433e-05	3.55433e-05	0	5	0.00750886
1	1	0	0	0	1	0	1346.9	10	0.75759	9.99973	0.000149956	0.000103644	10	4.16546e-05	2.99807e-08	-7.42182e-12	1026.17	0.000000000000000E+000	0.000000000000000E+000	4.16546e-05	4.16546e-05	0	5	0.0075757
1	1	0	0	0	1	0	1346.91	10	0.764484	10.0008	0.000175958	0.000129646	10	4.88773e-05	3.54838e-08	-7.42182e-12	1149.83	0.000000000000000E+000	0.000000000000000E+000	4.88773e-05	4.88773e-05	0	5	0.00764546
1	1	0	0	0	1	0	1346.91	10	0.771359	10.001	0.000205959	0.000159647	10	5.72109e-05	4.18892e-08	-7.42182e-12	1287.98	0.000000000000000E+000	0.000000000000000E+000	5.72109e-05	5.72109e-05	0	5	0.00771436
1	1	0	0	0	1	0	1346.91	10	0.777431	9.99934	0.00023796	0.000191648	10	6.61001e-05	4.87785e-08	-7.42182e-12	1433.62	0.000000000000000E+000	0.000000000000000E+000	6.61001e-05	6.61001e-05	0	5	0.0077738
1	1	0	0	0	1	0	1346.92	10	0.783408	10.0003	0.000273961	0.000227649	10	7.61004e-05	5.65901e-08	-7.42182e-12	1593.12	0.000000000000000E+000	0.000000000000000E+000	7.61004e-05	7.61004e-05	0	5	0.00783432
1	1	0	0	0	1	0	1346.92	10	0.789328	10.0002	0.000313963	0.00026765	10	8.72119e-05	6.53357e-08	-7.42182e-12	1764.95	0.000000000000000E+000	0.000000000000000E+000	8.72119e-05	8.72119e-05	0	5	0.00789347
1	1	0	0	0	1	0	1346.93	10	0.795496	10.001	0.000361964	0.000315652	10	0.000100546	7.59108e-08	-7.42182e-12	1966.57	0.000000000000000E+000	0.000000000000000E+000	0.000100546	0.000100546	0	5	0.00795576
1	0	0	1	1	1	1	1346.93	-10	0.223403	-9.7845	4.32371e-08	0.000357697	11	1.20053e-08	8.52305e-08	-7.42182e-12	2135.6	0.000000000000000E+000	0.000000000000000E+000	1.20053e-08	1.20053e-08	0	5	-0.00218589
1	0	0	1	0	1	1	1346.93	-10	0.152518	-10.0036	-9.95895e-06	0.000347695	11	-2.76638e-06	8.52305e-08	-4.78228e-10	2135.6	257.348	2.76638e-06	0.000000000000000E+000	2.76638e-06	0	5	-0.00152573
1	0	0	1	0	1	1	1346.93	-10	0.12987	-10.0032	-1.99621e-05	0.000337692	11	-5.54502e-06	8.52305e-08	-8.61419e-10	2135.6	325.018	5.54502e-06	0.000000000000000E+000	5.54502e-06	0	5	-0.00129911
1	0	0	1	0	1	1	1346.93	-10	0.115128	-10.0031	-2.99653e-05	0.000327688	11	-8.32369e-06	8.52305e-08	-1.19643e-09	2135.6	393.203	8.32369e-06	0.000000000000000E+000	8.32369e-06	0	5	-0.00115163
1	0	0	1	0	1	1	1346.93	-10	0.104052	-10.004	-3.99687e-05	0.000317685	11	-1.11024e-05	8.52305e-08	-1.49719e-09	2135.6	457.749	1.11024e-05	0.000000000000000E+000	1.11024e-05	0	5	-0.00104094
1	0	0	1	0	1	1	1346.94	-10	0.095058	-10.0032	-4.99722e-05	0.000307682	11	-1.38812e-05	8.52305e-08	-1.77081e-09	2135.6	518.745	1.38812e-05	0.000000000000000E+000	1.38812e-05	0	5	-0.000950881
1	0	0	1	0	1	1	1346.94	-10	0.0874579	-10.003	-5.99757e-05	0.000297678	11	-1.66599e-05	8.52305e-08	-2.02211e-09	2135.6	576.964	1.66599e-05	0.000000000000000E+000	1.66599e-05	0	5	-0.000874844
1	0	0	1	0	1	1	1346.94	-10	0.0810226	-10.0032	-6.99791e-05	0.000287675	11	-1.94386e-05	8.52305e-08	-2.25429e-09	2135.6	633.87	1.94386e-05	0.000000000000000E+000	1.94386e-05	0	5	-0.000810486
1	0	0	1	0	1	1	1346.94	-10	0.0752174	-10.0034	-7.99825e-05	0.000277671	11	-2.22174e-05	8.52305e-08	-2.46953e-09	2135.6	688.223	2.22174e-05	0.000000000000000E+000	2.22174e-05	0	5	-0.000752431
1	0	0	1	0	1	1	1346.94	-10	0.0680946	-10.0042	-9.39876e-05	0.000263666	11	-2.61077e-05	8.52305e-08	-2.74488e-09	2135.6	761.95	2.61077e-05	0.000000000000000E+000	2.61077e-05	0	5	-0.000681235
1	0	0	1	0	1	1	1346.94	-10	0.0602653	-10.003	-0.000111994	0.00024566	11	-3.11094e-05	8.52305e-08	-3.06129e-09	2135.6	853.655	3.11094e-05	0.000000000000000E+000	3.11094e-05	0	5	-0.000602832
1	0	0	1	0	1	1	1346.94	-10	0.0527415	-10.0036	-0.000132001	0.000225653	11	-3.66669e-05	8.52305e-08	-3.37057e-09	2135.6	951.51	3.66669e-05	0.000000000000000E+000	3.66669e-05	0	5	-0.000527605
1	0	0	1	0	1	1	1346.95	-10	0.0462298	-10.0037	-0.000152008	0.000205646	11	-4.22244e-05	8.52305e-08	-3.64148e-09	2135.6	1046.54	4.22244e-05	0.000000000000000E+000	4.22244e-05	0	5	-0.000462468
1	0	0	1	0	1	1	1346.95	-10	0.0403101	-10.0032	-0.000172015	0.000185639	11	-4.77819e-05	8.52305e-08	-3.87831e-09	2135.6	1137.86	4.77819e-05	0.000000000000000E+000	4.77819e-05	0	5	-0.000403231
1	0	0	1	0	1	1	1346.95	-10	0.0337602	-10.0044	-0.000198024	0.00015963	11	-5.50067e-05	8.52305e-08	-4.14054e-09	2135.6	1255.45	5.50067e-05	0.000000000000000E+000	5.50067e-05	0	5	-0.000337752
1	0	0	1	0	1	1	1346.95	-10	0.0274204	-10.0039	-0.000226034	0.00013162	11	-6.27873e-05	8.52305e-08	-4.37257e-09	2135.6	1377.6	6.27873e-05	0.000000000000000E+000	6.27873e-05	0	5	-0.000274311
1	0	0	1	0	1	1	1346.96	-10	0.0212715	-10.0035	-0.000256045	0.000101608	11	-7.11237e-05	8.52305e-08	-4.56889e-09	2135.6	1504.09	7.11237e-05	0.000000000000000E+000	7.11237e-05	0	5	-0.00021279
1	0	0	1	0	1	1	1346.96	-10	0.0153708	-10.0046	-0.000288057	6.95971e-05	11	-8.00158e-05	8.52305e-08	-4.72549e-09	2135.6	1635.4	8.00158e-05	0.000000000000000E+000	8.00158e-05	0	5	-0.000153778
1	0	0	1	0	1	1	1346.96	-10	0.00929834	-10.0036	-0.00032607	3.15834e-05	11	-9.05751e-05	8.52305e-08	-4.84821e-09	2135.6	1789.48	9.05751e-05	0.000000000000000E+000	9.05751e-05	0	5	-9.30169e-05
1	0	0	1	0	1	1	1346.97	-10	0.00364595	-10.0039	-0.000364084	-6.43009e-06	11	-0.000101134	8.52305e-08	-4.90969e-09	2135.6	1937.94	0.000101134	0.000000000000000E+000	0.000101134	0	5	-3.64736e-05
1	0	0	1	0	1	1	1346.97	-10	-0.000364188	-10.003	-0.000394094	-3.64402e-05	11	-0.000109471	8.52305e-08	-4.91879e-09	2135.6	2053.81	0.000109471	0.000000000000000E+000	0.000109471	97.5562	5	3.64296e-06