File: Input_data/[1] JJ1-53 1st SC total meas_09_CV.mpt
EC-Lab ASCII FILE
Nb header lines : 56

Cyclic Voltammetry

Run on channel : 1 (SN 31418)
User :
CE vs. WE compliance from -10 V to 10 V
Electrode connection : standard
Ewe ctrl range : min = -10.00 V, max = 10.00 V
Safety Limits :
	Do not start on E overload
Acquisition started on : 01/25/2023 15:21:28
Technique started on : 01/25/2023 17:31:23
Saved on :
	File : [1] JJ1-53 1st SC total meas_09_CV.mpr
	Directory : C:\Users\Potentiostat\Documents\EC-Lab\Data\Supercapacitor until 2021 02\(230125) SC JJ1-53 54 lower CB better viscosity\
	Host : 127.0.0.1
Device : SP-150 (SN 1275)
Address : USB
EC-Lab for windows v11.16 (software)
Internet server v11.16 (firmware)
Command interpretor v11.16 (firmware)
Electrode material : Au/Pd
Initial state :
Electrolyte : NaCl (0.2M)
Comments : Fe(CN)63-/Fe(CN)64- 5.10-3 M
Reference electrode : SCE Saturated Calomel Electrode (0.241 V)
Electrode surface area : 0.001 cm²
Characteristic mass : 0.001 g
Equivalent Weight : 0.000 g/eq.
Density : 0.000 g/cm3
Cycle Definition : Charge/Discharge alternance
Ei (V)              0.000
vs.                 Ref
dE/dt               10.000
dE/dt unit          mV/s
E1 (V)              0.800
vs.                 Ref
Step percent        0
N                   10
E range min (V)     -10.000
E range max (V)     10.000
I Range             Auto
I Range min         Unset
I Range max         Unset
I Range init        Unset
Bandwidth           7
E2 (V)              0.000
vs.                 Ref
nc cycles           5
Reverse Scan        0
Ef (V)              0.000
vs.                 Eoc

mode	ox/red	error	control changes	counter inc.	time/s	control/V	Ewe/V	<I>/mA	cycle number	(Q-Qo)/C	P/W
2	1	0	1	0	7795.13	0.000747797	0.000304169	-0.623954	1	0.0000000E+000	-1.89787e-07
2	1	0	0	0	7796.53	0.0147591	0.0143269	-0.28921	1	-0.000585894	-4.14349e-06
2	1	0	1	0	7798.07	0.0301565	0.0297534	-0.103667	1	-0.000871707	-3.08443e-06
2	1	0	1	0	7799.67	0.0461692	0.0457598	0.0270691	1	-0.000920376	1.23868e-06
2	1	0	0	0	7801.24	0.0618742	0.0614089	0.121637	1	-0.000794006	7.46959e-06
2	1	0	0	0	7802.78	0.0772713	0.0768999	0.194958	1	-0.000542031	1.49923e-05
2	1	0	1	0	7804.32	0.0926677	0.0922725	0.254625	1	-0.000188001	2.34949e-05
2	1	0	1	0	7805.86	0.108065	0.107653	0.304517	1	0.000249539	3.27821e-05
2	1	0	0	0	7807.4	0.123463	0.123065	0.34761	1	0.000758778	4.27788e-05
2	1	0	0	0	7808.94	0.13886	0.138482	0.3847	1	0.00132932	5.3274e-05
2	1	0	1	0	7810.48	0.154257	0.15388	0.418651	1	0.00195406	6.4422e-05
2	1	0	1	0	7812.02	0.169654	0.169268	0.448356	1	0.00262795	7.58922e-05
2	1	0	0	0	7813.56	0.185051	0.18465	0.474983	1	0.00334519	8.77054e-05
2	1	0	1	0	7815.1	0.200449	0.20006	0.500659	1	0.00410296	0.000100162
2	1	0	1	0	7816.64	0.215845	0.215438	0.523577	1	0.00489813	0.000112798
2	1	0	0	0	7818.18	0.231242	0.230838	0.546421	1	0.00572833	0.000126135
2	1	0	0	0	7819.72	0.246639	0.24626	0.567673	1	0.00659248	0.000139795
2	1	0	1	0	7821.26	0.262036	0.261664	0.5878	1	0.00748826	0.000153806
2	1	0	1	0	7822.8	0.277433	0.277058	0.6082	1	0.00841524	0.000168507
2	1	0	0	0	7824.34	0.292831	0.292458	0.626707	1	0.00937244	0.000183285
2	1	0	0	0	7825.88	0.308228	0.307817	0.646016	1	0.0103584	0.000198855
2	1	0	1	0	7827.42	0.323625	0.323236	0.664718	1	0.0113739	0.000214861
2	1	0	1	0	7828.96	0.339022	0.338585	0.68328	1	0.0124179	0.000231348
2	1	0	0	0	7830.5	0.354419	0.354034	0.702518	1	0.013491	0.000248716
2	1	0	1	0	7832.04	0.369817	0.369399	0.720862	1	0.0145931	0.000266286
2	1	0	1	0	7833.58	0.385213	0.384783	0.740099	1	0.0157239	0.000284778
2	1	0	0	0	7835.11	0.40061	0.400217	0.759902	1	0.0168852	0.000304125
2	1	0	0	0	7836.65	0.416007	0.415566	0.779977	1	0.0180767	0.000324132
2	1	0	1	0	7838.19	0.431404	0.430981	0.801122	1	0.0192998	0.000345268
2	1	0	1	0	7839.73	0.446801	0.446483	0.823043	1	0.0205564	0.000367475
2	1	0	0	0	7841.27	0.462199	0.461728	0.845599	1	0.0218472	0.000390437
2	1	0	0	0	7842.81	0.477596	0.477166	0.870515	1	0.0231749	0.00041538
2	1	0	1	0	7844.35	0.492993	0.492541	0.895663	1	0.024541	0.000441151
2	1	0	1	0	7845.89	0.50839	0.507963	0.922858	1	0.0259469	0.000468778
2	1	0	0	0	7847.43	0.523787	0.523347	0.950969	1	0.0273957	0.000497687
2	1	0	1	0	7848.97	0.539184	0.538757	0.979819	1	0.0288882	0.000527885
2	1	0	1	0	7850.51	0.554581	0.55417	1.01116	1	0.0304272	0.000560353
2	1	0	0	0	7852.08	0.570286	0.569771	1.04346	1	0.0320473	0.000594535
2	1	0	0	0	7853.62	0.585683	0.585224	1.0767	1	0.0336858	0.000630114
2	1	0	1	0	7855.16	0.60108	0.600568	1.11085	1	0.0353764	0.000667143
2	1	0	1	0	7856.7	0.616477	0.615937	1.14518	1	0.0371196	0.000705361
2	1	0	0	0	7858.24	0.631874	0.631387	1.18156	1	0.0389175	0.000746022
2	1	0	0	0	7859.78	0.647272	0.646759	1.21646	1	0.0407701	0.000786759
2	1	0	1	0	7861.32	0.662669	0.662107	1.25255	1	0.0426776	0.00082932
2	1	0	1	0	7862.86	0.678066	0.677586	1.28839	1	0.0446406	0.000872996
2	1	0	0	0	7864.4	0.693463	0.692937	1.32389	1	0.0466584	0.000917369
2	1	0	1	0	7865.94	0.70886	0.708379	1.35952	1	0.0487309	0.000963052
2	1	0	1	0	7867.48	0.724257	0.723737	1.39509	1	0.0508583	0.00100968
2	1	0	0	0	7869.02	0.739654	0.739198	1.43045	1	0.0530398	0.00105739
2	1	0	0	0	7870.56	0.755051	0.754555	1.46646	1	0.0552766	0.00110652
2	1	0	1	0	7872.1	0.770447	0.769975	1.50261	1	0.0575686	0.00115697
2	1	0	1	0	7873.64	0.785845	0.785397	1.54057	1	0.0599175	0.00120996
2	0	0	0	0	7875.04	0.799857	0.799296	1.57393	1	0.0621071	0.00125803
2	0	0	1	0	7876.44	0.785845	0.785372	1.10683	1	0.0639463	0.000869271
2	0	0	0	0	7877.98	0.770447	0.769902	0.760744	1	0.0653634	0.000585699
2	0	0	0	0	7879.52	0.755051	0.754556	0.498462	1	0.0663181	0.000376118
2	0	0	1	0	7881.12	0.739037	0.738646	0.281524	1	0.0669299	0.000207946
2	0	0	1	0	7882.66	0.723641	0.723278	0.112105	1	0.067222	8.1083e-05
2	0	0	0	0	7884.26	0.707628	0.70725	-0.0348905	1	0.0672735	-2.46763e-05
2	0	0	0	0	7885.83	0.691923	0.691527	-0.156203	1	0.0671138	-0.000108019
2	0	0	1	0	7887.37	0.676526	0.676102	-0.257082	1	0.0667871	-0.000173814
2	0	0	1	0	7888.91	0.661129	0.660693	-0.344423	1	0.0663159	-0.000227558
2	0	0	0	0	7890.45	0.645732	0.645325	-0.419729	1	0.0657196	-0.000270862
2	0	0	0	0	7891.99	0.630335	0.629941	-0.485619	1	0.0650152	-0.000305911
2	0	0	1	0	7893.53	0.614938	0.614488	-0.54436	1	0.0642144	-0.000334502
2	0	0	1	0	7895.07	0.59954	0.599128	-0.595305	1	0.06333	-0.000356664
2	0	0	0	0	7896.61	0.584143	0.583694	-0.64125	1	0.0623711	-0.000374294
2	0	0	0	0	7898.15	0.568746	0.568317	-0.682295	1	0.0613452	-0.00038776
2	0	0	1	0	7899.69	0.553349	0.552928	-0.71862	1	0.0602599	-0.000397345
2	0	0	0	0	7901.23	0.537952	0.537521	-0.752779	1	0.0591199	-0.000404634
2	0	0	0	0	7902.77	0.522555	0.522131	-0.782739	1	0.057931	-0.000408692
2	0	0	1	0	7904.31	0.507158	0.506749	-0.811274	1	0.0566973	-0.000411112
2	0	0	1	0	7905.85	0.491761	0.49134	-0.837261	1	0.0554217	-0.00041138
2	0	0	0	0	7907.39	0.476365	0.475905	-0.860304	1	0.0541085	-0.000409423
2	0	0	0	0	7908.93	0.460967	0.460514	-0.882191	1	0.0527603	-0.000406261
2	0	0	1	0	7910.47	0.44557	0.445151	-0.899916	1	0.0513813	-0.000400598
2	0	0	1	0	7912.01	0.430173	0.429747	-0.91569	1	0.0499768	-0.000393515
2	0	0	0	0	7913.55	0.414776	0.414336	-0.927829	1	0.0485504	-0.000384433
2	0	0	0	0	7915.09	0.399378	0.398942	-0.936087	1	0.0471089	-0.000373444
2	0	0	1	0	7916.63	0.383981	0.383572	-0.941968	1	0.0456566	-0.000361312
2	0	0	0	0	7918.17	0.368584	0.368171	-0.944716	1	0.0441974	-0.000347817
2	0	0	0	0	7919.71	0.353187	0.352747	-0.947294	1	0.0427345	-0.000334155
2	0	0	1	0	7921.25	0.33779	0.337334	-0.949531	1	0.0412677	-0.000320309
2	0	0	1	0	7922.79	0.322393	0.321953	-0.951769	1	0.0397978	-0.000306425
2	0	0	0	0	7924.33	0.306997	0.306583	-0.954877	1	0.0383237	-0.000292749
2	0	0	0	0	7925.87	0.291599	0.291183	-0.958947	1	0.0368439	-0.00027923
2	0	0	1	0	7927.41	0.276202	0.275851	-0.963578	1	0.0353578	-0.000265803
2	0	0	1	0	7928.95	0.260805	0.260406	-0.969225	1	0.0338636	-0.000252392
2	0	0	0	0	7930.48	0.245408	0.245022	-0.97492	1	0.0323608	-0.000238877
2	0	0	0	0	7932.02	0.23001	0.22962	-0.981394	1	0.030849	-0.000225348
2	0	0	1	0	7933.56	0.214613	0.21421	-0.987494	1	0.0293269	-0.000211531
2	0	0	0	0	7935.1	0.199216	0.198834	-0.993316	1	0.0277958	-0.000197505
2	0	0	0	0	7936.64	0.183819	0.183431	-0.999726	1	0.0262549	-0.00018338
2	0	0	1	0	7938.18	0.168422	0.168045	-1.00493	1	0.0247051	-0.000168873
2	0	0	1	0	7939.72	0.153025	0.152568	-1.01057	1	0.0231472	-0.000154181
2	0	0	0	0	7941.26	0.137628	0.137196	-1.01536	1	0.021581	-0.000139303
2	0	0	0	0	7942.8	0.122231	0.121869	-1.01872	1	0.0200091	-0.000124149
2	0	0	1	0	7944.36	0.10668	0.106259	-1.0228	1	0.0184152	-0.000108681
2	0	0	1	0	7945.91	0.0911287	0.090684	-1.02576	1	0.0168154	-9.30202e-05
2	0	0	0	0	7947.45	0.0757316	0.07528	-1.02851	1	0.0152273	-7.74264e-05
2	0	0	0	0	7948.99	0.0603345	0.0598346	-1.03134	1	0.0136348	-6.17097e-05
2	0	0	1	0	7950.53	0.0449374	0.044456	-1.03361	1	0.0120388	-4.595e-05
2	0	0	0	0	7952.07	0.0295399	0.0290674	-1.03693	1	0.0104388	-3.01409e-05
2	0	0	0	0	7953.61	0.0141433	0.0137328	-1.0392	1	0.0088342	-1.42712e-05
2	1	0	1	1	7955.01	0.000131913	-0.000325996	-1.04095	1	0.00736989	3.39345e-07
2	1	0	0	1	7956.41	0.0141433	0.0137095	-0.644913	2	0.00623202	-8.84143e-06
2	1	0	1	1	7958.02	0.0301565	0.0296961	-0.387389	2	0.00542691	-1.15039e-05
2	1	0	1	1	7959.56	0.0455533	0.0451901	-0.217034	2	0.00497493	-9.80781e-06
2	1	0	0	1	7961.09	0.0609497	0.0605203	-0.089844	2	0.00474895	-5.43739e-06
2	1	0	0	1	7962.7	0.0769634	0.0765796	0.0143581	2	0.004698	1.09954e-06
2	1	0	1	1	7964.25	0.0925137	0.0921901	0.0959783	2	0.00479246	8.84825e-06
2	1	0	1	1	7965.81	0.108065	0.107667	0.163877	2	0.0050022	1.7644e-05
2	1	0	0	1	7967.35	0.123463	0.123096	0.221933	2	0.00530691	2.7319e-05
2	1	0	0	1	7968.89	0.13886	0.138448	0.27156	2	0.00569382	3.7597e-05
2	1	0	1	1	7970.43	0.154257	0.153859	0.31595	2	0.00615271	4.86116e-05
2	1	0	1	1	7971.97	0.169654	0.169283	0.355042	2	0.00667595	6.01025e-05
2	1	0	0	1	7973.5	0.185051	0.184641	0.389893	2	0.00725592	7.19903e-05
2	1	0	1	1	7975.04	0.200449	0.200014	0.422577	2	0.00788816	8.45212e-05
2	1	0	1	1	7976.58	0.215845	0.21539	0.451893	2	0.00856817	9.73332e-05
2	1	0	0	1	7978.12	0.231242	0.23088	0.479994	2	0.0092922	0.000110821
2	1	0	0	1	7979.66	0.246639	0.246264	0.506521	2	0.0100584	0.000124738
2	1	0	1	1	7981.2	0.262036	0.261612	0.530956	2	0.0108634	0.000138904
2	1	0	1	1	7982.74	0.277433	0.277057	0.555339	2	0.0117061	0.00015386
2	1	0	0	1	7984.28	0.292831	0.292437	0.577519	2	0.0125848	0.000168888
2	1	0	0	1	7985.82	0.308228	0.307797	0.599925	2	0.0134977	0.000184655
2	1	0	1	1	7987.36	0.323625	0.323157	0.621362	2	0.0144444	0.000200798
2	1	0	1	1	7988.9	0.339022	0.33856	0.642227	2	0.0154235	0.000217432
2	1	0	0	1	7990.44	0.354419	0.353984	0.663599	2	0.0164352	0.000234903
2	1	0	1	1	7991.98	0.369817	0.369389	0.683982	2	0.017479	0.000252655
2	1	0	1	1	7993.52	0.385213	0.38478	0.704714	2	0.0185541	0.00027116
2	1	0	0	1	7995.06	0.40061	0.400179	0.725831	2	0.0196619	0.000290462
2	1	0	0	1	7996.6	0.416007	0.415555	0.746876	2	0.0208018	0.000310368
2	1	0	1	1	7998.14	0.431404	0.430949	0.76909	2	0.021975	0.000331439
2	1	0	1	1	7999.68	0.446801	0.446422	0.791777	2	0.0231829	0.000353466
2	1	0	0	1	8001.22	0.462199	0.461754	0.815123	2	0.0244261	0.000376387
2	1	0	0	1	8002.76	0.477596	0.477115	0.840831	2	0.0257075	0.000401173
2	1	0	1	1	8004.3	0.492993	0.492538	0.866419	2	0.0270283	0.000426745
2	1	0	1	1	8005.84	0.50839	0.507956	0.894336	2	0.0283899	0.000454283
2	1	0	0	1	8007.38	0.523787	0.52333	0.923185	2	0.0297955	0.00048313
2	1	0	1	1	8008.92	0.539184	0.538711	0.952297	2	0.0312454	0.000513013
2	1	0	1	1	8010.46	0.554581	0.554207	0.983838	2	0.0327424	0.00054525
2	1	0	0	1	8012	0.569978	0.569557	1.0152	2	0.0342879	0.000578216
2	1	0	0	1	8013.57	0.585683	0.585147	1.0493	2	0.0359158	0.000613993
2	1	0	1	1	8015.11	0.60108	0.600634	1.08309	2	0.0375641	0.00065054
2	1	0	1	1	8016.65	0.616477	0.615951	1.11673	2	0.0392639	0.000687851
2	1	0	0	1	8018.19	0.631874	0.631382	1.15216	2	0.041017	0.000727456
2	1	0	0	1	8019.73	0.647272	0.646758	1.18574	2	0.0428234	0.000766883
2	1	0	1	1	8021.27	0.662669	0.662134	1.22041	2	0.0446823	0.000808074
2	1	0	1	1	8022.81	0.678066	0.677567	1.25515	2	0.046595	0.000850451
2	1	0	0	1	8024.35	0.693463	0.692895	1.28979	2	0.0485608	0.000893689
2	1	0	1	1	8025.89	0.70886	0.708367	1.32504	2	0.0505801	0.000938611
2	1	0	1	1	8027.43	0.724257	0.723758	1.35984	2	0.0526538	0.000984197
2	1	0	0	1	8028.97	0.739654	0.73914	1.39529	2	0.0547812	0.00103132
2	1	0	0	1	8030.5	0.755051	0.75457	1.43186	2	0.0569645	0.00108044
2	1	0	1	1	8032.04	0.770447	0.769945	1.46912	2	0.0592043	0.00113114
2	1	0	1	1	8033.58	0.785845	0.785363	1.50861	2	0.0615026	0.0011848
2	0	0	0	1	8034.99	0.799857	0.799468	1.54427	2	0.0636485	0.0012346
2	0	0	1	1	8036.39	0.785845	0.785363	1.07882	2	0.0654472	0.000847264
2	0	0	0	1	8037.93	0.770447	0.769967	0.73548	2	0.0668232	0.000566295
2	0	0	0	1	8039.5	0.754743	0.754302	0.471181	2	0.0677544	0.000355413
2	0	0	1	1	8041.07	0.739037	0.738586	0.260843	2	0.0683176	0.000192655
2	0	0	1	1	8042.61	0.723641	0.723242	0.0931991	2	0.0685794	6.74055e-05
2	0	0	0	1	8044.21	0.707628	0.707282	-0.0519416	2	0.0686024	-3.67374e-05
2	0	0	0	1	8045.78	0.691923	0.691565	-0.171618	2	0.0684172	-0.000118685
2	0	0	1	1	8047.32	0.676526	0.676103	-0.271295	2	0.0680677	-0.000183423
2	0	0	1	1	8048.86	0.661129	0.660707	-0.357474	2	0.0675756	-0.000236186
2	0	0	0	1	8050.4	0.645732	0.645362	-0.431628	2	0.0669599	-0.000278556
2	0	0	0	1	8051.94	0.630335	0.629945	-0.496834	2	0.0662378	-0.000312978
2	0	0	1	1	8053.48	0.614938	0.614503	-0.554644	2	0.0654204	-0.00034083
2	0	0	1	1	8055.02	0.59954	0.599161	-0.604971	2	0.0645206	-0.000362475
2	0	0	0	1	8056.56	0.584143	0.58373	-0.650336	2	0.0635473	-0.00037962
2	0	0	0	1	8058.1	0.568746	0.568284	-0.690754	2	0.062508	-0.000392544
2	0	0	1	1	8059.64	0.553349	0.552938	-0.72671	2	0.0614099	-0.000401826
2	0	0	0	1	8061.18	0.537952	0.537522	-0.760383	2	0.060258	-0.000408723
2	0	0	0	1	8062.72	0.522555	0.52217	-0.790136	2	0.0590575	-0.000412585
2	0	0	1	1	8064.26	0.507158	0.506757	-0.818341	2	0.0578128	-0.0004147
2	0	0	1	1	8065.8	0.491761	0.491321	-0.844038	2	0.0565265	-0.000414694
2	0	0	0	1	8067.34	0.476365	0.475939	-0.86678	2	0.055203	-0.000412534
2	0	0	0	1	8068.87	0.460967	0.460533	-0.888604	2	0.0538449	-0.000409232
2	0	0	1	1	8070.41	0.44557	0.445133	-0.906004	2	0.0524563	-0.000403292
2	0	0	1	1	8071.95	0.430173	0.429781	-0.921366	2	0.0510426	-0.000395985
2	0	0	0	1	8073.49	0.414776	0.414361	-0.933302	2	0.0496076	-0.000386724
2	0	0	0	1	8075.03	0.399378	0.399025	-0.941082	2	0.0481582	-0.000375516
2	0	0	1	1	8076.57	0.383981	0.383532	-0.946791	2	0.0466982	-0.000363125
2	0	0	0	1	8078.11	0.368584	0.368193	-0.949348	2	0.0452318	-0.000349543
2	0	0	0	1	8079.65	0.353187	0.352759	-0.951693	2	0.043762	-0.000335719
2	0	0	1	1	8081.19	0.33779	0.337346	-0.9537	2	0.0422886	-0.000321727
2	0	0	1	1	8082.73	0.322393	0.321941	-0.955713	2	0.0408124	-0.000307683
2	0	0	0	1	8084.27	0.306997	0.306596	-0.958367	2	0.0393325	-0.000293831
2	0	0	0	1	8085.81	0.291599	0.291211	-0.961948	2	0.0378477	-0.00028013
2	0	0	1	1	8087.35	0.276202	0.275805	-0.966166	2	0.0363572	-0.000266473
2	0	0	1	1	8088.89	0.260805	0.26039	-0.971241	2	0.0348594	-0.000252902
2	0	0	0	1	8090.43	0.245408	0.245045	-0.976499	2	0.0333538	-0.000239286
2	0	0	0	1	8091.97	0.23001	0.2296	-0.982759	2	0.0318397	-0.000225642
2	0	0	1	1	8093.51	0.214613	0.214207	-0.988621	2	0.0303157	-0.000211769
2	0	0	0	1	8095.05	0.199216	0.198854	-0.994264	2	0.0287831	-0.000197714
2	0	0	0	1	8096.59	0.183819	0.183432	-1.0005	2	0.0272409	-0.000183523
2	0	0	1	1	8098.13	0.168422	0.16803	-1.00568	2	0.0256899	-0.000168985
2	0	0	1	1	8099.67	0.153025	0.152634	-1.0114	2	0.0241308	-0.000154375
2	0	0	0	1	8101.21	0.137628	0.137238	-1.01621	2	0.0225633	-0.000139462
2	0	0	0	1	8102.75	0.122231	0.121908	-1.01984	2	0.0209899	-0.000124327
2	0	0	1	1	8104.32	0.106526	0.106058	-1.02469	2	0.0193778	-0.000108677
2	0	0	1	1	8105.86	0.0911287	0.0906861	-1.02711	2	0.0177917	-9.31443e-05
2	0	0	0	1	8107.4	0.0757316	0.0752895	-1.03026	2	0.0162012	-7.75677e-05
2	0	0	0	1	8108.94	0.0603345	0.0598569	-1.03323	2	0.0146062	-6.18456e-05
2	0	0	1	1	8110.48	0.0449374	0.0444687	-1.03537	2	0.0130074	-4.60418e-05
2	0	0	0	1	8112.02	0.0295399	0.0290622	-1.03853	2	0.0114045	-3.01819e-05
2	0	0	0	1	8113.56	0.0141433	0.0137095	-1.04132	2	0.00979676	-1.4276e-05
2	1	0	1	0	8114.96	0.000131913	-0.000421476	-1.0436	2	0.0083293	4.3985e-07
2	1	0	0	0	8116.36	0.0141433	0.0136755	-0.646492	3	0.00718891	-8.84112e-06
2	1	0	1	0	8117.96	0.0301565	0.0297397	-0.388717	3	0.00638144	-1.15603e-05
2	1	0	1	0	8119.5	0.0455533	0.0451562	-0.218418	3	0.00592734	-9.86293e-06
2	1	0	0	0	8121.04	0.0609497	0.0605924	-0.0909485	3	0.00569956	-5.51079e-06
2	1	0	0	0	8122.64	0.0769634	0.076587	0.0134844	3	0.00564716	1.03273e-06
2	1	0	1	0	8124.2	0.0925137	0.0921347	0.0953015	3	0.00574026	8.78058e-06
2	1	0	1	0	8125.75	0.108065	0.107643	0.163138	3	0.00594883	1.75607e-05
2	1	0	0	0	8127.29	0.123463	0.123062	0.221333	3	0.00625253	2.72378e-05
2	1	0	0	0	8128.83	0.13886	0.138417	0.271063	3	0.00663861	3.75198e-05
2	1	0	1	0	8130.37	0.154257	0.153873	0.315646	3	0.00709684	4.85695e-05
2	1	0	1	0	8131.91	0.169654	0.169254	0.354603	3	0.00761953	6.0018e-05
2	1	0	0	0	8133.45	0.185051	0.184622	0.389556	3	0.00819902	7.19207e-05
2	1	0	1	0	8134.99	0.200449	0.200065	0.422382	3	0.00883089	8.45038e-05
2	1	0	1	0	8136.53	0.215845	0.215431	0.451679	3	0.00951054	9.73058e-05
2	1	0	0	0	8138.07	0.231242	0.230885	0.479911	3	0.0102343	0.000110804
2	1	0	0	0	8139.61	0.246639	0.246284	0.506212	3	0.0110001	0.000124672
2	1	0	1	0	8141.15	0.262036	0.261656	0.530759	3	0.0118048	0.000138877
2	1	0	1	0	8142.69	0.277433	0.277033	0.554996	3	0.0126471	0.000153752
2	1	0	0	0	8144.23	0.292831	0.292407	0.57718	3	0.0135253	0.000168771
2	1	0	0	0	8145.77	0.308228	0.307837	0.599505	3	0.0144375	0.00018455
2	1	0	1	0	8147.31	0.323625	0.323171	0.620879	3	0.0153836	0.00020065
2	1	0	1	0	8148.85	0.339022	0.338577	0.641753	3	0.0163618	0.000217283
2	1	0	0	0	8150.39	0.354419	0.353943	0.662921	3	0.0173725	0.000234636
2	1	0	1	0	8151.93	0.369817	0.369355	0.683134	3	0.0184153	0.000252319
2	1	0	1	0	8153.47	0.385213	0.384762	0.70389	3	0.0194893	0.00027083
2	1	0	0	0	8155.01	0.40061	0.400157	0.724895	3	0.0205957	0.000290072
2	1	0	0	0	8156.55	0.416007	0.415555	0.745948	3	0.0217343	0.000309983
2	1	0	1	0	8158.09	0.431404	0.430979	0.76831	3	0.0229061	0.000331125
2	1	0	1	0	8159.63	0.446801	0.446395	0.79101	3	0.0241128	0.000353103
2	1	0	0	0	8161.17	0.462199	0.46177	0.814435	3	0.0253549	0.000376082
2	1	0	0	0	8162.71	0.477596	0.477177	0.840157	3	0.0266353	0.000400903
2	1	0	1	0	8164.25	0.492993	0.492558	0.865975	3	0.0279552	0.000426543
2	1	0	1	0	8165.78	0.50839	0.507974	0.893907	3	0.029316	0.000454081
2	1	0	0	0	8167.32	0.523787	0.523379	0.922687	3	0.0307208	0.000482915
2	1	0	1	0	8168.86	0.539184	0.538719	0.951823	3	0.0321699	0.000512765
2	1	0	1	0	8170.4	0.554581	0.554161	0.98327	3	0.0336661	0.00054489
2	1	0	0	0	8171.94	0.569978	0.569465	1.01441	3	0.0352105	0.000577673
2	1	0	0	0	8173.51	0.585683	0.585184	1.04846	3	0.036837	0.000613541
2	1	0	1	0	8175.05	0.60108	0.600578	1.08183	3	0.0384838	0.00064972
2	1	0	1	0	8176.59	0.616477	0.615925	1.11535	3	0.0401816	0.000686974
2	1	0	0	0	8178.13	0.631874	0.631341	1.15039	3	0.0419323	0.000726289
2	1	0	0	0	8179.67	0.647272	0.646755	1.18394	3	0.043736	0.000765719
2	1	0	1	0	8181.21	0.662669	0.66216	1.21845	3	0.045592	0.000806811
2	1	0	1	0	8182.75	0.678066	0.67758	1.253	3	0.0475014	0.00084901
2	1	0	0	0	8184.29	0.693463	0.692978	1.2871	3	0.0494637	0.000891931
2	1	0	1	0	8185.83	0.70886	0.708394	1.32217	3	0.051479	0.000936617
2	1	0	1	0	8187.37	0.724257	0.723759	1.35679	3	0.0535481	0.000981986
2	1	0	0	0	8188.91	0.739654	0.739104	1.39187	3	0.0556706	0.00102873
2	1	0	0	0	8190.45	0.755051	0.754581	1.42857	3	0.0578487	0.00107797
2	1	0	1	0	8191.99	0.770447	0.769869	1.46558	3	0.060083	0.0011283
2	1	0	1	0	8193.53	0.785845	0.785356	1.50501	3	0.0623758	0.00118197
2	0	0	0	0	8194.93	0.799857	0.799353	1.54115	3	0.0645169	0.00123193
2	0	0	1	0	8196.33	0.785845	0.785317	1.07574	3	0.0663112	0.000844795
2	0	0	0	0	8197.87	0.770447	0.769966	0.732657	3	0.0676826	0.000564121
2	0	0	0	0	8199.44	0.754743	0.754276	0.468804	3	0.0686097	0.000353608
2	0	0	1	0	8201.01	0.739037	0.738599	0.258478	3	0.0691691	0.000190911
2	0	0	1	0	8202.55	0.723641	0.723283	0.0912348	3	0.0694275	6.59886e-05
2	0	0	0	0	8204.15	0.707628	0.707186	-0.0537456	3	0.0694472	-3.80081e-05
2	0	0	0	0	8205.73	0.691923	0.691528	-0.173354	3	0.0692592	-0.000119879
2	0	0	1	0	8207.27	0.676526	0.67609	-0.272823	3	0.0689072	-0.000184453
2	0	0	1	0	8208.8	0.661129	0.660722	-0.358818	3	0.0684129	-0.000237079
2	0	0	0	0	8210.34	0.645732	0.64528	-0.432922	3	0.0677952	-0.000279356
2	0	0	0	0	8211.88	0.630335	0.629954	-0.497913	3	0.0670712	-0.000313662
2	0	0	1	0	8213.42	0.614938	0.614505	-0.555658	3	0.0662522	-0.000341454
2	0	0	1	0	8214.96	0.59954	0.599115	-0.605964	3	0.0653508	-0.000363042
2	0	0	0	0	8216.5	0.584143	0.583692	-0.651344	3	0.064376	-0.000380184
2	0	0	0	0	8218.04	0.568746	0.568281	-0.691677	3	0.0633351	-0.000393067
2	0	0	1	0	8219.58	0.553349	0.552933	-0.727672	3	0.0622357	-0.000402354
2	0	0	0	0	8221.12	0.537952	0.537493	-0.761292	3	0.0610823	-0.00040919
2	0	0	0	0	8222.66	0.522555	0.522133	-0.791024	3	0.0598805	-0.000413019
2	0	0	1	0	8224.2	0.507158	0.506725	-0.819238	3	0.0586344	-0.000415129
2	0	0	1	0	8225.74	0.491761	0.491302	-0.844832	3	0.0573467	-0.000415068
2	0	0	0	0	8227.28	0.476365	0.475963	-0.867756	3	0.0560219	-0.000413019
2	0	0	0	0	8228.82	0.460967	0.460527	-0.889517	3	0.0546623	-0.000409646
2	0	0	1	0	8230.36	0.44557	0.445125	-0.906911	3	0.0532724	-0.000403689
2	0	0	1	0	8231.9	0.430173	0.429764	-0.922312	3	0.0518573	-0.000396376
2	0	0	0	0	8233.44	0.414776	0.414338	-0.934016	3	0.0504211	-0.000386999
2	0	0	0	0	8234.98	0.399378	0.398961	-0.94167	3	0.0489705	-0.000375689
2	0	0	1	0	8236.52	0.383981	0.383564	-0.947294	3	0.0475096	-0.000363348
2	0	0	0	0	8238.06	0.368584	0.36817	-0.949782	3	0.0460425	-0.000349682
2	0	0	0	0	8239.6	0.353187	0.352752	-0.952132	3	0.0445719	-0.000335866
2	0	0	1	0	8241.14	0.33779	0.337357	-0.954151	3	0.0430979	-0.000321889
2	0	0	1	0	8242.68	0.322393	0.321971	-0.95608	3	0.041621	-0.00030783
2	0	0	0	0	8244.22	0.306997	0.306604	-0.958651	3	0.0401406	-0.000293927
2	0	0	0	0	8245.76	0.291599	0.291199	-0.962078	3	0.0386555	-0.000280157
2	0	0	1	0	8247.3	0.276202	0.275861	-0.966073	3	0.0371649	-0.000266502
2	0	0	1	0	8248.84	0.260805	0.2604	-0.971015	3	0.0356673	-0.000252852
2	0	0	0	0	8250.38	0.245408	0.245017	-0.976188	3	0.034162	-0.000239183
2	0	0	0	0	8251.92	0.23001	0.229645	-0.98221	3	0.0326486	-0.000225559
2	0	0	1	0	8253.46	0.214613	0.214223	-0.987926	3	0.0311255	-0.000211636
2	0	0	0	0	8255	0.199216	0.198841	-0.993511	3	0.029594	-0.00019755
2	0	0	0	0	8256.54	0.183819	0.183422	-0.999737	3	0.028053	-0.000183374
2	0	0	1	0	8258.08	0.168422	0.168035	-1.005	3	0.0265033	-0.000168875
2	0	0	1	0	8259.62	0.153025	0.152694	-1.01059	3	0.0249454	-0.000154311
2	0	0	0	0	8261.15	0.137628	0.137229	-1.01551	3	0.0233791	-0.000139358
2	0	0	0	0	8262.69	0.122231	0.121817	-1.01932	3	0.0218067	-0.00012417
2	0	0	1	0	8264.27	0.106526	0.106051	-1.02423	3	0.0201957	-0.000108621
2	0	0	1	0	8265.8	0.0911287	0.0907254	-1.02681	3	0.0186103	-9.3158e-05
2	0	0	0	0	8267.34	0.0757316	0.0752768	-1.02985	3	0.0170203	-7.75241e-05
2	0	0	0	0	8268.88	0.0603345	0.0598558	-1.03286	3	0.0154255	-6.18228e-05
2	0	0	1	0	8270.42	0.0449374	0.0444486	-1.03543	3	0.0138268	-4.60235e-05
2	0	0	0	0	8271.96	0.0295399	0.0289858	-1.0389	3	0.0122239	-3.01133e-05
2	0	0	0	0	8273.5	0.0141433	0.0136522	-1.04129	3	0.0106162	-1.42159e-05
2	1	0	1	1	8274.9	0.000131913	-0.000383284	-1.04342	3	0.00914878	3.99927e-07
2	1	0	0	1	8276.31	0.0141433	0.0136331	-0.646393	4	0.00800856	-8.81235e-06
2	1	0	1	1	8277.91	0.0301565	0.0297609	-0.38841	4	0.00720141	-1.15594e-05
2	1	0	1	1	8279.45	0.0455533	0.0451806	-0.217987	4	0.00674788	-9.84879e-06
2	1	0	0	1	8280.99	0.0609497	0.0605288	-0.0904612	4	0.0065208	-5.47551e-06
2	1	0	0	1	8282.59	0.0769634	0.0766082	0.0140394	4	0.00646909	1.07553e-06
2	1	0	1	1	8284.14	0.0925137	0.0921557	0.0958048	4	0.00656309	8.82896e-06
2	1	0	1	1	8285.7	0.108065	0.107603	0.163884	4	0.00677266	1.76344e-05
2	1	0	0	1	8287.24	0.123463	0.123062	0.222017	4	0.00707745	2.73219e-05
2	1	0	0	1	8288.78	0.13886	0.13843	0.271848	4	0.00746461	3.76319e-05
2	1	0	1	1	8290.32	0.154257	0.153849	0.316284	4	0.0079239	4.86599e-05
2	1	0	1	1	8291.86	0.169654	0.169252	0.355369	4	0.00844768	6.01469e-05
2	1	0	0	1	8293.4	0.185051	0.184632	0.390265	4	0.0090283	7.20552e-05
2	1	0	1	1	8294.94	0.200449	0.200065	0.423061	4	0.00966121	8.46398e-05
2	1	0	1	1	8296.48	0.215845	0.215431	0.452258	4	0.0103418	9.74304e-05
2	1	0	0	1	8298.02	0.231242	0.230851	0.480433	4	0.0110665	0.000110908
2	1	0	0	1	8299.56	0.246639	0.246275	0.506839	4	0.0118333	0.000124822
2	1	0	1	1	8301.1	0.262036	0.261615	0.531247	4	0.0126388	0.000138982
2	1	0	1	1	8302.64	0.277433	0.277084	0.555415	4	0.0134818	0.000153897
2	1	0	0	1	8304.17	0.292831	0.292431	0.577568	4	0.0143606	0.000168899
2	1	0	0	1	8305.71	0.308228	0.307838	0.599819	4	0.0152734	0.000184647
2	1	0	1	1	8307.25	0.323625	0.323221	0.621162	4	0.0162199	0.000200773
2	1	0	1	1	8308.79	0.339022	0.338565	0.641886	4	0.0171984	0.00021732
2	1	0	0	1	8310.33	0.354419	0.353986	0.662966	4	0.0182092	0.00023468
2	1	0	1	1	8311.87	0.369817	0.3694	0.683247	4	0.019252	0.000252391
2	1	0	1	1	8313.41	0.385213	0.384785	0.703791	4	0.0203259	0.000270809
2	1	0	0	1	8314.95	0.40061	0.400151	0.72481	4	0.0214321	0.000290033
2	1	0	0	1	8316.49	0.416007	0.415536	0.745833	4	0.0225704	0.00030992
2	1	0	1	1	8318.03	0.431404	0.431009	0.768093	4	0.023742	0.000331055
2	1	0	1	1	8319.57	0.446801	0.446402	0.790958	4	0.0249486	0.000353085
2	1	0	0	1	8321.11	0.462199	0.461728	0.814442	4	0.0261906	0.000376051
2	1	0	0	1	8322.65	0.477596	0.477149	0.840275	4	0.027471	0.000400936
2	1	0	1	1	8324.19	0.492993	0.492532	0.866101	4	0.0287909	0.000426582
2	1	0	1	1	8325.73	0.50839	0.507951	0.89401	4	0.0301519	0.000454113
2	1	0	0	1	8327.27	0.523787	0.52339	0.922777	4	0.0315568	0.000482972
2	1	0	1	1	8328.81	0.539184	0.538753	0.952043	4	0.0330061	0.000512915
2	1	0	1	1	8330.35	0.554581	0.554153	0.983453	4	0.0345025	0.000544984
2	1	0	0	1	8331.89	0.569978	0.569522	1.01445	4	0.0360471	0.000577749
2	1	0	0	1	8333.46	0.585683	0.585125	1.04791	4	0.0376734	0.000613158
2	1	0	1	1	8335	0.60108	0.600528	1.08173	4	0.0393198	0.000649609
2	1	0	1	1	8336.54	0.616477	0.615909	1.11493	4	0.0410172	0.000686697
2	1	0	0	1	8338.08	0.631874	0.631424	1.15027	4	0.0427675	0.000726305
2	1	0	0	1	8339.62	0.647272	0.646767	1.18333	4	0.0445706	0.00076534
2	1	0	1	1	8341.16	0.662669	0.662171	1.21768	4	0.0464256	0.000806312
2	1	0	1	1	8342.7	0.678066	0.677578	1.25188	4	0.0483337	0.000848244
2	1	0	0	1	8344.24	0.693463	0.692988	1.28584	4	0.0502942	0.000891075
2	1	0	1	1	8345.78	0.70886	0.708366	1.32066	4	0.0523076	0.00093551
2	1	0	1	1	8347.32	0.724257	0.723789	1.35516	4	0.0543743	0.000980853
2	1	0	0	1	8348.86	0.739654	0.739147	1.39018	4	0.0564941	0.00102755
2	1	0	0	1	8350.4	0.755051	0.754552	1.42678	4	0.0586695	0.00107658
2	1	0	1	1	8351.94	0.770447	0.769991	1.46384	4	0.0609012	0.00112714
2	1	0	1	1	8353.48	0.785845	0.785302	1.50356	4	0.0631916	0.00118075
2	0	0	0	1	8354.88	0.799857	0.79941	1.54033	4	0.0653307	0.00123136
2	0	0	1	1	8356.28	0.785845	0.785361	1.07438	4	0.0671231	0.000843774
2	0	0	0	1	8357.82	0.770447	0.769926	0.731284	4	0.0684925	0.000563035
2	0	0	0	1	8359.39	0.754743	0.754282	0.467821	4	0.0694179	0.000352869
2	0	0	1	1	8360.96	0.739037	0.7386	0.257634	4	0.0699759	0.000190288
2	0	0	1	1	8362.5	0.723641	0.723236	0.0904175	4	0.070233	6.53931e-05
2	0	0	0	1	8364.1	0.707628	0.707214	-0.054516	4	0.0702516	-3.85545e-05
2	0	0	0	1	8365.67	0.691923	0.691491	-0.173898	4	0.0700625	-0.000120249
2	0	0	1	1	8367.21	0.676526	0.67617	-0.273293	4	0.0697096	-0.000184793
2	0	0	1	1	8368.75	0.661129	0.660748	-0.359211	4	0.0692145	-0.000237348
2	0	0	0	1	8370.29	0.645732	0.645361	-0.433377	4	0.0685962	-0.000279685
2	0	0	0	1	8371.83	0.630335	0.629911	-0.498385	4	0.0678716	-0.000313938
2	0	0	1	1	8373.37	0.614938	0.614482	-0.556007	4	0.067052	-0.000341656
2	0	0	1	1	8374.91	0.59954	0.599123	-0.606351	4	0.0661501	-0.000363279
2	0	0	0	1	8376.45	0.584143	0.583691	-0.651547	4	0.0651749	-0.000380303
2	0	0	0	1	8377.99	0.568746	0.568329	-0.691937	4	0.0641336	-0.000393247
2	0	0	1	1	8379.53	0.553349	0.552909	-0.727928	4	0.0630338	-0.000402478
2	0	0	0	1	8381.07	0.537952	0.53754	-0.761507	4	0.06188	-0.000409341
2	0	0	0	1	8382.61	0.522555	0.522147	-0.791156	4	0.0606778	-0.0004131
2	0	0	1	1	8384.15	0.507158	0.506728	-0.81946	4	0.0594313	-0.000415243
2	0	0	1	1	8385.69	0.491761	0.491301	-0.845073	4	0.0581433	-0.000415185
2	0	0	0	1	8387.23	0.476365	0.475958	-0.868151	4	0.0568179	-0.000413204
2	0	0	0	1	8388.77	0.460967	0.460538	-0.889875	4	0.0554577	-0.000409821
2	0	0	1	1	8390.31	0.44557	0.445156	-0.90731	4	0.0540671	-0.000403894
2	0	0	1	1	8391.85	0.430173	0.429722	-0.922666	4	0.0526515	-0.00039649
2	0	0	0	1	8393.39	0.414776	0.414334	-0.934262	4	0.0512147	-0.000387096
2	0	0	0	1	8394.93	0.399378	0.398972	-0.941839	4	0.0497639	-0.000375768
2	0	0	1	1	8396.47	0.383981	0.383566	-0.947416	4	0.0483029	-0.000363397
2	0	0	0	1	8398.01	0.368584	0.368193	-0.949845	4	0.0468356	-0.000349726
2	0	0	0	1	8399.54	0.353187	0.352764	-0.95207	4	0.045365	-0.000335855
2	0	0	1	1	8401.08	0.33779	0.337383	-0.954164	4	0.0438909	-0.000321919
2	0	0	1	1	8402.62	0.322393	0.321986	-0.956053	4	0.0424142	-0.000307836
2	0	0	0	1	8404.16	0.306997	0.306615	-0.958655	4	0.0409339	-0.000293938
2	0	0	0	1	8405.7	0.291599	0.291203	-0.962017	4	0.0394488	-0.000280142
2	0	0	1	1	8407.24	0.276202	0.275812	-0.965919	4	0.0379585	-0.000266412
2	0	0	1	1	8408.78	0.260805	0.260391	-0.970828	4	0.0364611	-0.000252795
2	0	0	0	1	8410.32	0.245408	0.245034	-0.975875	4	0.0349563	-0.000239123
2	0	0	0	1	8411.86	0.23001	0.229651	-0.981799	4	0.0334434	-0.000225471
2	0	0	1	1	8413.4	0.214613	0.214231	-0.987482	4	0.031921	-0.00021155
2	0	0	0	1	8414.94	0.199216	0.198875	-0.992997	4	0.0303902	-0.000197482
2	0	0	0	1	8416.48	0.183819	0.183399	-0.999128	4	0.02885	-0.000183239
2	0	0	1	1	8418.02	0.168422	0.168023	-1.00435	4	0.0273012	-0.000168754
2	0	0	1	1	8419.56	0.153025	0.152682	-1.0101	4	0.0257442	-0.000154224
2	0	0	0	1	8421.1	0.137628	0.137192	-1.01504	4	0.0241785	-0.000139256
2	0	0	0	1	8422.64	0.122231	0.12185	-1.01879	4	0.0226067	-0.000124139
2	0	0	1	1	8424.21	0.106526	0.106042	-1.02399	4	0.0209963	-0.000108586
2	0	0	1	1	8425.75	0.0911287	0.0906914	-1.0267	4	0.0194113	-9.31129e-05
2	0	0	0	1	8427.29	0.0757316	0.0752863	-1.02981	4	0.0178215	-7.75305e-05
2	0	0	0	1	8428.83	0.0603345	0.0598494	-1.03274	4	0.016227	-6.18087e-05
2	0	0	1	1	8430.37	0.0449374	0.0444528	-1.03527	4	0.0146284	-4.60207e-05
2	0	0	0	1	8431.91	0.0295399	0.0290378	-1.03849	4	0.0130256	-3.01555e-05
2	0	0	0	1	8433.45	0.0141433	0.0137148	-1.04141	4	0.011418	-1.42827e-05
2	1	0	1	0	8434.85	0.000131913	-0.0003069	-1.04344	4	0.00995071	3.20232e-07
2	1	0	0	0	8436.25	0.0141433	0.0136734	-0.646116	5	0.00881045	-8.83461e-06
2	1	0	1	0	8437.85	0.0301565	0.0297651	-0.388041	5	0.00800365	-1.15501e-05
2	1	0	1	0	8439.39	0.0455533	0.0451488	-0.217546	5	0.00755073	-9.82195e-06
2	1	0	0	0	8440.93	0.0609497	0.060549	-0.0899828	5	0.00732438	-5.44837e-06
2	1	0	0	0	8442.53	0.0769634	0.0766018	0.0145375	5	0.00727358	1.1136e-06
2	1	0	1	0	8444.09	0.0925137	0.0921222	0.0963916	5	0.00736848	8.87981e-06
2	1	0	1	0	8445.64	0.108065	0.107691	0.164507	5	0.00757893	1.77159e-05
2	1	0	0	0	8447.18	0.123463	0.123079	0.22266	5	0.0078846	2.74048e-05
2	1	0	0	0	8448.72	0.13886	0.138414	0.272266	5	0.00827266	3.76854e-05
2	1	0	1	0	8450.26	0.154257	0.153877	0.316879	5	0.00873291	4.87603e-05
2	1	0	1	0	8451.8	0.169654	0.169267	0.356022	5	0.00925762	6.02627e-05
2	1	0	0	0	8453.34	0.185051	0.184599	0.390997	5	0.00983915	7.21775e-05
2	1	0	1	0	8454.88	0.200449	0.200068	0.423713	5	0.0104731	8.47714e-05
2	1	0	1	0	8456.42	0.215845	0.2154	0.452896	5	0.0111547	9.75539e-05
2	1	0	0	0	8457.96	0.231242	0.23084	0.481004	5	0.0118803	0.000111035
2	1	0	0	0	8459.5	0.246639	0.246225	0.507411	5	0.0126479	0.000124937
2	1	0	1	0	8461.04	0.262036	0.26163	0.531793	5	0.0134542	0.000139133
2	1	0	1	0	8462.58	0.277433	0.277046	0.555904	5	0.0142979	0.000154011
2	1	0	0	0	8464.12	0.292831	0.292425	0.577903	5	0.0151773	0.000168993
2	1	0	0	0	8465.66	0.308228	0.307781	0.600083	5	0.0160906	0.000184694
2	1	0	1	0	8467.2	0.323625	0.323199	0.621346	5	0.0170374	0.000200818
2	1	0	1	0	8468.74	0.339022	0.33857	0.641982	5	0.0180161	0.000217356
2	1	0	0	0	8470.28	0.354419	0.35398	0.662958	5	0.0190271	0.000234674
2	1	0	1	0	8471.82	0.369817	0.369373	0.683102	5	0.0200699	0.00025232
2	1	0	1	0	8473.36	0.385213	0.384749	0.703772	5	0.0211436	0.000270776
2	1	0	0	0	8474.9	0.40061	0.400178	0.724791	5	0.0222498	0.000290045
2	1	0	0	0	8476.44	0.416007	0.415558	0.745814	5	0.0233881	0.000309929
2	1	0	1	0	8477.98	0.431404	0.430928	0.768193	5	0.0245597	0.000331036
2	1	0	1	0	8479.52	0.446801	0.446357	0.790844	5	0.0257662	0.000352999
2	1	0	0	0	8481.06	0.462199	0.461765	0.814464	5	0.0270082	0.000376091
2	1	0	0	0	8482.6	0.477596	0.477166	0.840328	5	0.0282886	0.000400976
2	1	0	1	0	8484.14	0.492993	0.492574	0.866216	5	0.0296087	0.000426676
2	1	0	1	0	8485.68	0.50839	0.507975	0.894242	5	0.03097	0.000454252
2	1	0	0	0	8487.22	0.523787	0.523351	0.922965	5	0.0323752	0.000483035
2	1	0	1	0	8488.76	0.539184	0.53873	0.952121	5	0.0338248	0.000512937
2	1	0	1	0	8490.3	0.554581	0.554182	0.983516	5	0.0353214	0.000545047
2	1	0	0	0	8491.84	0.569978	0.569501	1.01453	5	0.0368661	0.000577777
2	1	0	0	0	8493.41	0.585683	0.585167	1.04831	5	0.0384929	0.000613436
2	1	0	1	0	8494.95	0.60108	0.600576	1.08182	5	0.0401396	0.000649716
2	1	0	1	0	8496.49	0.616477	0.615905	1.1151	5	0.0418371	0.000686797
2	1	0	0	0	8498.03	0.631874	0.631411	1.14971	5	0.0435872	0.000725936
2	1	0	0	0	8499.56	0.647272	0.646768	1.18306	5	0.0453896	0.000765164
2	1	0	1	0	8501.1	0.662669	0.662154	1.21707	5	0.0472439	0.000805886
2	1	0	1	0	8502.64	0.678066	0.677592	1.25123	5	0.0491509	0.000847825
2	1	0	0	0	8504.18	0.693463	0.692878	1.28486	5	0.0511099	0.000890252
2	1	0	1	0	8505.72	0.70886	0.708361	1.3195	5	0.0531215	0.000934684
2	1	0	1	0	8507.26	0.724257	0.723766	1.35413	5	0.0551868	0.000980073
2	1	0	0	0	8508.8	0.739654	0.739083	1.38883	5	0.057305	0.00102646
2	1	0	0	0	8510.34	0.755051	0.754569	1.42561	5	0.0594788	0.00107572
2	1	0	1	0	8511.88	0.770447	0.769891	1.46299	5	0.0617091	0.00112635
2	1	0	1	0	8513.42	0.785845	0.785349	1.50269	5	0.0639981	0.00118014
2	0	0	0	0	8514.82	0.799857	0.799353	1.5392	5	0.0661359	0.00123036
2	0	0	1	0	8516.23	0.785845	0.785336	1.07364	5	0.0679271	0.000843169
2	0	0	0	0	8517.76	0.770447	0.769958	0.730735	5	0.0692954	0.000562635
2	0	0	0	0	8519.34	0.754743	0.754312	0.467281	5	0.0702199	0.000352475
2	0	0	1	0	8520.91	0.739037	0.738629	0.25721	5	0.070777	0.000189983
2	0	0	1	0	8522.45	0.723641	0.723241	0.0900034	5	0.0710335	6.50941e-05
2	0	0	0	0	8524.05	0.707628	0.707231	-0.0548087	5	0.0710516	-3.87624e-05
2	0	0	0	0	8525.65	0.691615	0.691195	-0.176273	5	0.0708565	-0.000121839
2	0	0	1	0	8527.19	0.676218	0.675811	-0.27527	5	0.0705003	-0.000186031
2	0	0	1	0	8528.73	0.660821	0.660396	-0.361092	5	0.0700022	-0.000238464
2	0	0	0	0	8530.27	0.645424	0.645021	-0.434757	5	0.0693815	-0.000280428
2	0	0	0	0	8531.81	0.630027	0.629604	-0.499611	5	0.0686546	-0.000314557
2	0	0	1	0	8533.35	0.61463	0.614134	-0.557105	5	0.0678332	-0.000342138
2	0	0	1	0	8534.89	0.599233	0.598864	-0.607248	5	0.0669297	-0.000363659
2	0	0	0	0	8536.43	0.583835	0.583435	-0.652338	5	0.065953	-0.000380597
2	0	0	0	0	8537.97	0.568438	0.56799	-0.692623	5	0.0649104	-0.000393403
2	0	0	1	0	8539.51	0.553041	0.552605	-0.728712	5	0.0638094	-0.00040269
2	0	0	0	0	8541.05	0.537643	0.537195	-0.762119	5	0.0626546	-0.000409406
2	0	0	0	0	8542.58	0.522247	0.521829	-0.791979	5	0.0614513	-0.000413277
2	0	0	1	0	8544.12	0.50685	0.50644	-0.820136	5	0.0602038	-0.000415349
2	0	0	1	0	8545.66	0.491453	0.491018	-0.845706	5	0.0589147	-0.000415257
2	0	0	0	0	8547.2	0.476057	0.475648	-0.868585	5	0.0575884	-0.000413141
2	0	0	0	0	8548.74	0.460659	0.460243	-0.890401	5	0.0562273	-0.000409801
2	0	0	1	0	8550.28	0.445262	0.444871	-0.907837	5	0.0548359	-0.00040387
2	0	0	1	0	8551.82	0.429865	0.429429	-0.923094	5	0.0534195	-0.000396403
2	0	0	0	0	8553.36	0.414468	0.414	-0.934567	5	0.0519824	-0.00038691
2	0	0	0	0	8554.9	0.39907	0.398687	-0.94192	5	0.0505313	-0.000375531
2	0	0	1	0	8556.44	0.383673	0.383263	-0.9474	5	0.0490702	-0.000363103
2	0	0	0	0	8557.98	0.368276	0.367831	-0.949626	5	0.0476031	-0.000349301
2	0	0	0	0	8559.52	0.352879	0.352436	-0.95205	5	0.0461328	-0.000335537
2	0	0	1	0	8561.06	0.337482	0.337052	-0.953951	5	0.0446589	-0.000321531
2	0	0	1	0	8562.6	0.322085	0.321602	-0.955911	5	0.0431823	-0.000307423
2	0	0	0	0	8564.14	0.306689	0.306268	-0.958553	5	0.0417022	-0.000293574
2	0	0	0	0	8565.68	0.291291	0.29093	-0.96185	5	0.0402174	-0.000279831
2	0	0	1	0	8567.22	0.275894	0.275502	-0.965718	5	0.0387272	-0.000266057
2	0	0	1	0	8568.76	0.260497	0.260096	-0.97068	5	0.0372301	-0.000252471
2	0	0	0	0	8570.3	0.2451	0.244742	-0.975731	5	0.0357256	-0.000238803
2	0	0	0	0	8571.84	0.229702	0.229339	-0.981481	5	0.034213	-0.000225092
2	0	0	1	0	8573.38	0.214305	0.213905	-0.987261	5	0.0326909	-0.00021118
2	0	0	0	0	8574.92	0.198908	0.198563	-0.992595	5	0.0311605	-0.000197093
2	0	0	0	0	8576.46	0.183511	0.183099	-0.998919	5	0.0296207	-0.000182901
2	0	0	1	0	8578	0.168114	0.16774	-1.00418	5	0.0280722	-0.000168441
2	0	0	1	0	8579.54	0.152717	0.152304	-1.0099	5	0.0265156	-0.000153812
2	0	0	0	0	8581.08	0.137321	0.136915	-1.01489	5	0.0249505	-0.000138953
2	0	0	0	0	8582.62	0.121923	0.121582	-1.01871	5	0.0233789	-0.000123857
2	0	0	1	0	8584.17	0.106372	0.106029	-1.02337	5	0.0217847	-0.000108506
2	0	0	1	0	8585.73	0.0908208	0.0903689	-1.02654	5	0.0201839	-9.27676e-05
2	0	0	0	0	8587.27	0.0754237	0.0749585	-1.02993	5	0.0185942	-7.72023e-05
2	0	0	0	0	8588.81	0.0600266	0.0595683	-1.0328	5	0.0169997	-6.15222e-05
2	0	0	1	0	8590.35	0.0446295	0.0441112	-1.03531	5	0.0154011	-4.56689e-05
2	0	0	0	0	8591.89	0.0292317	0.0287457	-1.0389	5	0.0137982	-2.98638e-05
2	0	0	0	0	8593.43	0.0138353	0.0134315	-1.04122	5	0.0121905	-1.39852e-05
2	1	0	1	1	8594.8	0.000131913	-0.000364188	-1.04369	5	0.0107554	3.80098e-07
2	1	0	0	1	8596.2	0.0141433	0.0137074	-0.645816	6	0.00961551	-8.85244e-06
2	1	0	1	1	8597.8	0.0301565	0.0297683	-0.387838	6	0.00880906	-1.15453e-05
2	1	0	1	1	8599.34	0.0455533	0.045152	-0.21729	6	0.00835657	-9.81105e-06
2	1	0	0	1	8600.88	0.0609497	0.0605871	-0.0896663	6	0.00813076	-5.43262e-06
2	1	0	0	1	8602.48	0.0769634	0.0766103	0.0149916	6	0.00808055	1.14851e-06
2	1	0	1	1	8604.04	0.0925137	0.0921672	0.0968916	6	0.00817622	8.93023e-06
2	1	0	1	1	8605.59	0.108065	0.107678	0.165004	6	0.00838748	1.77674e-05
2	1	0	0	1	8607.13	0.123463	0.123061	0.223008	6	0.00869392	2.74436e-05
2	1	0	0	1	8608.67	0.13886	0.138459	0.272813	6	0.00908277	3.77733e-05
2	1	0	1	1	8610.21	0.154257	0.153902	0.317489	6	0.00954379	4.88621e-05
2	1	0	1	1	8611.75	0.169654	0.16927	0.356577	6	0.0100693	6.03578e-05
2	1	0	0	1	8613.29	0.185051	0.184657	0.391515	6	0.0106517	7.2296e-05
2	1	0	1	1	8614.83	0.200449	0.200123	0.424151	6	0.0112864	8.48824e-05
2	1	0	1	1	8616.37	0.215845	0.215404	0.453374	6	0.0119688	9.76584e-05
2	1	0	0	1	8617.91	0.231242	0.230843	0.481437	6	0.0126951	0.000111136
2	1	0	0	1	8619.45	0.246639	0.246269	0.507717	6	0.0134633	0.000125035
2	1	0	1	1	8620.99	0.262036	0.261636	0.532118	6	0.0142702	0.000139221
2	1	0	1	1	8622.53	0.277433	0.277061	0.556265	6	0.0151143	0.000154119
2	1	0	0	1	8624.07	0.292831	0.292418	0.578158	6	0.0159942	0.000169064
2	1	0	0	1	8625.61	0.308228	0.307804	0.600224	6	0.0169078	0.000184752
2	1	0	1	1	8627.15	0.323625	0.323222	0.62138	6	0.0178548	0.000200844
2	1	0	1	1	8628.69	0.339022	0.338582	0.641857	6	0.0188337	0.000217321
2	1	0	0	1	8630.23	0.354419	0.354059	0.663034	6	0.0198446	0.000234753
2	1	0	1	1	8631.77	0.369817	0.369412	0.683081	6	0.0208874	0.000252338
2	1	0	1	1	8633.31	0.385213	0.384746	0.703719	6	0.0219611	0.000270753
2	1	0	0	1	8634.84	0.40061	0.400186	0.724655	6	0.0230671	0.000289997
2	1	0	0	1	8636.38	0.416007	0.415548	0.745698	6	0.0242053	0.000309873
2	1	0	1	1	8637.92	0.431404	0.43098	0.767994	6	0.0253767	0.00033099
2	1	0	1	1	8639.46	0.446801	0.446375	0.790813	6	0.0265831	0.000352999
2	1	0	0	1	8641	0.462199	0.461785	0.814449	6	0.0278251	0.0003761
2	1	0	0	1	8642.54	0.477596	0.477189	0.840364	6	0.0291056	0.000401013
2	1	0	1	1	8644.08	0.492993	0.492527	0.866127	6	0.0304257	0.000426592
2	1	0	1	1	8645.62	0.50839	0.507993	0.894202	6	0.0317869	0.000454249
2	1	0	0	1	8647.16	0.523787	0.523449	0.923014	6	0.0331923	0.000483151
2	1	0	1	1	8648.7	0.539184	0.538791	0.952269	6	0.034642	0.000513074
2	1	0	1	1	8650.24	0.554581	0.554153	0.983634	6	0.0361387	0.000545084
2	1	0	0	1	8651.78	0.569978	0.569519	1.01461	6	0.0376835	0.000577842
2	1	0	0	1	8653.35	0.585683	0.585171	1.04826	6	0.0393103	0.000613411
2	1	0	1	1	8654.89	0.60108	0.600592	1.08162	6	0.0409567	0.000649614
2	1	0	1	1	8656.43	0.616477	0.61596	1.11481	6	0.042654	0.00068668
2	1	0	0	1	8657.97	0.631874	0.631365	1.14954	6	0.0444035	0.000725781
2	1	0	0	1	8659.51	0.647272	0.646719	1.18228	6	0.0462052	0.000764601
2	1	0	1	1	8661.05	0.662669	0.662199	1.21684	6	0.0480587	0.000805788
2	1	0	1	1	8662.59	0.678066	0.677564	1.25061	6	0.0499649	0.000847368
2	1	0	0	1	8664.13	0.693463	0.692938	1.28442	6	0.0519231	0.000890021
2	1	0	1	1	8665.67	0.70886	0.708319	1.3192	6	0.053934	0.000934416
2	1	0	1	1	8667.21	0.724257	0.723803	1.35334	6	0.0559982	0.000979551
2	1	0	0	1	8668.75	0.739654	0.739137	1.38825	6	0.0581154	0.00102611
2	1	0	0	1	8670.29	0.755051	0.754608	1.42483	6	0.0602881	0.00107519
2	1	0	1	1	8671.83	0.770447	0.769984	1.46209	6	0.0625171	0.00112578
2	1	0	1	1	8673.37	0.785845	0.785345	1.50201	6	0.064805	0.0011796
2	0	0	0	1	8674.77	0.799857	0.799353	1.53838	6	0.0669417	0.00122971
2	0	0	1	1	8676.17	0.785845	0.785334	1.07323	6	0.0687319	0.000842845
2	0	0	0	1	8677.71	0.770447	0.769973	0.730136	6	0.0700995	0.000562185
2	0	0	0	1	8679.28	0.754743	0.754318	0.466933	6	0.0710234	0.000352216
2	0	0	1	1	8680.85	0.739037	0.738616	0.256969	6	0.07158	0.000189801
2	0	0	1	1	8682.39	0.723641	0.723232	0.0897246	6	0.0718361	6.48917e-05
2	0	0	0	1	8683.99	0.707628	0.707256	-0.0549738	6	0.0718538	-3.88806e-05
2	0	0	0	1	8685.59	0.691615	0.691169	-0.176341	6	0.0716585	-0.000121881
2	0	0	1	1	8687.13	0.676218	0.67584	-0.275286	6	0.0713021	-0.000186049
2	0	0	1	1	8688.67	0.660821	0.66039	-0.361189	6	0.070804	-0.000238525
2	0	0	0	1	8690.21	0.645424	0.645032	-0.434817	6	0.0701831	-0.000280471
2	0	0	0	1	8691.75	0.630027	0.62962	-0.499616	6	0.0694562	-0.000314568
2	0	0	1	1	8693.29	0.61463	0.614183	-0.557028	6	0.0686348	-0.000342117
2	0	0	1	1	8694.83	0.599233	0.598795	-0.607194	6	0.0677314	-0.000363585
2	0	0	0	1	8696.37	0.583835	0.5834	-0.652301	6	0.0667547	-0.000380552
2	0	0	0	1	8697.91	0.568438	0.567965	-0.692734	6	0.0657122	-0.000393448
2	0	0	1	1	8699.45	0.553041	0.552637	-0.728569	6	0.0646113	-0.000402634
2	0	0	0	1	8700.99	0.537643	0.537196	-0.762192	6	0.0634565	-0.000409447
2	0	0	0	1	8702.53	0.522247	0.521863	-0.791831	6	0.0622534	-0.000413227
2	0	0	1	1	8704.07	0.50685	0.506396	-0.820139	6	0.061006	-0.000415315
2	0	0	1	1	8705.61	0.491453	0.490932	-0.845894	6	0.0597169	-0.000415276
2	0	0	0	1	8707.15	0.476057	0.475628	-0.868744	6	0.0583905	-0.000413199
2	0	0	0	1	8708.69	0.460659	0.460231	-0.890399	6	0.0570294	-0.000409789
2	0	0	1	1	8710.23	0.445262	0.444872	-0.907915	6	0.0556379	-0.000403906
2	0	0	1	1	8711.77	0.429865	0.42944	-0.923169	6	0.0542215	-0.000396446
2	0	0	0	1	8713.31	0.414468	0.414031	-0.934551	6	0.0527843	-0.000386933
2	0	0	0	1	8714.85	0.39907	0.398665	-0.941831	6	0.0513333	-0.000375475
2	0	0	1	1	8716.39	0.383673	0.38326	-0.947296	6	0.0498724	-0.00036306
2	0	0	0	1	8717.93	0.368276	0.367868	-0.949502	6	0.0484055	-0.000349291
2	0	0	0	1	8719.47	0.352879	0.352424	-0.95176	6	0.0469355	-0.000335423
2	0	0	1	1	8721.01	0.337482	0.337021	-0.953834	6	0.0454619	-0.000321462
2	0	0	1	1	8722.55	0.322085	0.321634	-0.955733	6	0.0439856	-0.000307396
2	0	0	0	1	8724.09	0.306689	0.306292	-0.958445	6	0.0425057	-0.000293564
2	0	0	0	1	8725.63	0.291291	0.290944	-0.961578	6	0.0410211	-0.000279765
2	0	0	1	1	8727.17	0.275894	0.275481	-0.965637	6	0.0395313	-0.000266015
2	0	0	1	1	8728.71	0.260497	0.2601	-0.970534	6	0.0380344	-0.000252435
2	0	0	0	1	8730.25	0.2451	0.244723	-0.975543	6	0.03653	-0.000238738
2	0	0	0	1	8731.79	0.229702	0.229301	-0.981346	6	0.0350176	-0.000225024
2	0	0	1	1	8733.33	0.214305	0.213906	-0.987095	6	0.0334958	-0.000211145
2	0	0	0	1	8734.86	0.198908	0.198565	-0.992587	6	0.0319656	-0.000197093
2	0	0	0	1	8736.4	0.183511	0.183077	-0.998816	6	0.030426	-0.000182861
2	0	0	1	1	8737.94	0.168114	0.167762	-1.00395	6	0.0288778	-0.000168425
2	0	0	1	1	8739.48	0.152717	0.15232	-1.00976	6	0.0273215	-0.000153807
2	0	0	0	1	8741.02	0.137321	0.136901	-1.01476	6	0.0257566	-0.000138921
2	0	0	0	1	8742.56	0.121923	0.121536	-1.01857	6	0.0241852	-0.000123792
2	0	0	1	1	8744.12	0.106372	0.105931	-1.02339	6	0.0225911	-0.000108409
2	0	0	1	1	8745.67	0.0908208	0.0903498	-1.02664	6	0.0209905	-9.27564e-05
2	0	0	0	1	8747.21	0.0754237	0.0749829	-1.0298	6	0.0194008	-7.72173e-05
2	0	0	0	1	8748.75	0.0600266	0.0595227	-1.03311	6	0.0178061	-6.14936e-05
2	0	0	1	1	8750.29	0.0446295	0.0442247	-1.03541	6	0.0162075	-4.5791e-05
2	0	0	0	1	8751.83	0.0292317	0.0287712	-1.03879	6	0.0146046	-2.98872e-05
2	0	0	0	1	8753.37	0.0138353	0.0134008	-1.04108	6	0.0129969	-1.39512e-05
2	0	0	0	1	8754.74	0.000131913	-0.000268709	-1.04909	6	0.0115645	2.819e-07