File: Input_data/[1] JJ1-53 1st SC total meas_01_PEIS.mpt
EC-Lab ASCII FILE
Nb header lines : 62

Potentio Electrochemical Impedance Spectroscopy

Run on channel : 1 (SN 31418)
User :
CE vs. WE compliance from -10 V to 10 V
Electrode connection : standard
Ewe ctrl range : min = -10.00 V, max = 10.00 V
Safety Limits :
	Do not start on E overload
Acquisition started on : 01/25/2023 15:21:28
Technique started on : 01/25/2023 15:26:33
Saved on :
	File : [1] JJ1-53 1st SC total meas_01_PEIS.mpr
	Directory : C:\Users\Potentiostat\Documents\EC-Lab\Data\Supercapacitor until 2021 02\(230125) SC JJ1-53 54 lower CB better viscosity\
	Host : 127.0.0.1
Device : SP-150 (SN 1275)
Address : USB
EC-Lab for windows v11.16 (software)
Internet server v11.16 (firmware)
Command interpretor v11.16 (firmware)
Electrode material : Au/Pd
Initial state :
Electrolyte : NaCl (0.2M)
Comments : Fe(CN)63-/Fe(CN)64- 5.10-3 M
Reference electrode : SCE Saturated Calomel Electrode (0.241 V)
Electrode surface area : 0.001 cm²
Characteristic mass : 0.001 g
Equivalent Weight : 0.000 g/eq.
Density : 0.000 g/cm3
Cycle Definition : Charge/Discharge alternance
Mode                Single sine
E (V)               0.4000
vs.                 Ref
tE (h:m:s)          0:05:0.0000
record              0
dI                  0.000
unit dI             mA
dt (s)              0.000
fi                  1.000
unit fi             MHz
ff                  100.000
unit ff             mHz
Nd                  10
Points              per decade
spacing             Logarithmic
Va (mV)             5.0
pw                  5.00
Na                  5
corr                1
E range min (V)     -10.000
E range max (V)     10.000
I Range             Auto
Bandwidth           5
nc cycles           0
goto Ns'            0
nr cycles           0
inc. cycle          0

freq/Hz	Re(Z)/Ohm	-Im(Z)/Ohm	|Z|/Ohm	Phase(Z)/deg	time/s	<Ewe>/V	<I>/mA	Cs/µF	Cp/µF	cycle number	I Range	|Ewe|/V	|I|/A	Re(Y)/Ohm-1	Im(Y)/Ohm-1	|Y|/Ohm-1	Phase(Y)/deg
1.00002e+06	71.2381	49.0437	86.4878	-34.5454	305.183	0.40002	0.0267438	0.0032451	0.00104348	1	11	0.000429497	4.96598e-06	0.00952362	0.00655652	0.0115623	34.5454
791680	143.029	-10.0823	143.384	4.03218	306.49	0.399486	0.0200626	-0.0199394	-9.85892e-05	1	11	0.00116389	8.11729e-06	0.00695702	-0.000490409	0.00697429	-4.03218
626758	52.1278	-3.74275	52.262	4.10677	307.796	0.399473	0.0213961	-0.0678468	-0.000347969	1	11	0.00270491	5.17567e-05	0.0190852	-0.00137031	0.0191344	-4.10677
496191	37.3729	-2.16574	37.4356	3.31654	308.971	0.399572	0.0230995	-0.148104	-0.000495685	1	11	0.00526593	0.000140666	0.0266678	-0.00154538	0.0267125	-3.31654
392832	32.0027	-0.747397	32.0114	1.33786	310.572	0.399691	0.0384431	-0.542078	-0.000295499	1	10	0.00458475	0.000143223	0.0312304	-0.000729361	0.0312389	-1.33786
310996	29.3017	-0.214497	29.3025	0.419415	311.879	0.399708	0.038596	-2.38585	-0.000127843	1	10	0.00536681	0.000183152	0.0341259	-0.000249812	0.0341268	-0.419415
246211	27.876	0.0733529	27.8761	-0.150768	313.186	0.399708	0.0380535	8.81243	6.1019e-05	1	10	0.00536018	0.000192286	0.0358729	9.43957e-05	0.035873	0.150768
194922	27.1448	0.227454	27.1457	-0.480087	314.493	0.399716	0.0383108	3.58977	0.000252029	1	10	0.00541736	0.000199566	0.0368369	0.000308667	0.0368382	0.480087
154316	26.747	0.431838	26.7505	-0.924977	315.8	0.399719	0.0387955	2.38829	0.000622395	1	10	0.00536296	0.000200481	0.0373776	0.000603473	0.0373825	0.924977
122168	26.5221	0.507876	26.5269	-1.09703	317.107	0.399734	0.0381243	2.5651	0.000940257	1	10	0.00525766	0.000198201	0.0376906	0.000721745	0.0376975	1.09703
96718.7	26.4619	0.638364	26.4696	-1.38193	318.414	0.399745	0.0386724	2.57775	0.00149928	1	10	0.00521948	0.000197187	0.0377681	0.000911112	0.0377791	1.38193
76572.2	26.4916	0.749435	26.5022	-1.62044	319.721	0.399736	0.0381206	2.77341	0.00221779	1	10	0.00513352	0.000193702	0.0377177	0.00106702	0.0377328	1.62044
60615.2	26.4953	0.773993	26.5066	-1.67328	321.028	0.399747	0.0379603	3.39235	0.00289247	1	10	0.00506996	0.000191272	0.0377104	0.00110162	0.0377265	1.67328
47988.3	26.4958	0.868291	26.51	-1.87696	322.335	0.399721	0.0373153	3.81962	0.0040976	1	10	0.00506951	0.00019123	0.0377013	0.00123551	0.0377216	1.87696
37998	26.6277	0.929863	26.644	-2	323.641	0.399737	0.0382903	4.50443	0.00548631	1	10	0.00506018	0.000189918	0.0375091	0.00130985	0.0375319	2
30078.1	26.7344	0.951814	26.7513	-2.03902	324.816	0.399728	0.0372277	5.55926	0.0070377	1	10	0.00540854	0.000202178	0.0373576	0.00133003	0.0373813	2.03902
23808.6	26.894	1.03441	26.9139	-2.20265	326.123	0.399738	0.0374868	6.4624	0.00954613	1	10	0.00509862	0.000189442	0.0371281	0.00142804	0.0371556	2.20265
18847.7	27.0209	1.03752	27.0409	-2.1989	327.298	0.39973	0.0373843	8.13891	0.0119817	1	10	0.00526704	0.000194781	0.0369538	0.00141891	0.0369811	2.1989
14921.9	27.1583	1.06776	27.1793	-2.25149	328.473	0.399742	0.037703	9.98901	0.0154168	1	10	0.00537213	0.000197655	0.0367643	0.00144543	0.0367927	2.25149
11816.4	27.3072	1.13089	27.3306	-2.37147	329.647	0.399738	0.0373992	11.9101	0.0203918	1	10	0.00544793	0.000199334	0.0365577	0.00151398	0.036589	2.37147
9354.92	27.4967	1.17551	27.5218	-2.44797	330.889	0.399776	0.0393006	14.4728	0.026403	1	10	0.00548807	0.000199408	0.0363016	0.00155193	0.0363348	2.44797
7540.31	27.653	1.16272	27.6775	-2.40768	332.542	0.39974	0.0366498	18.1533	0.0320371	1	10	0.00502879	0.000181693	0.0360986	0.00151783	0.0361305	2.40768
5888.1	27.8208	1.22117	27.8476	-2.51333	334.401	0.399741	0.0357121	22.1345	0.0425643	1	10	0.00504763	0.000181259	0.0358752	0.00157471	0.0359097	2.51333
4641.48	27.9825	1.3012	28.0127	-2.66236	336.51	0.399751	0.0362546	26.3524	0.0568587	1	10	0.00505091	0.000180308	0.0356596	0.00165819	0.0356981	2.66236
3676.18	28.2009	1.30402	28.231	-2.64749	338.62	0.399761	0.0363851	33.2002	0.0708359	1	10	0.00506285	0.000179336	0.0353842	0.00163617	0.035422	2.64749
2910.93	28.3696	1.38659	28.4035	-2.79815	340.729	0.399751	0.036318	39.4314	0.0939707	1	10	0.00506293	0.00017825	0.035165	0.00171872	0.035207	2.79815
2302.79	28.5954	1.45079	28.6321	-2.90442	342.842	0.399769	0.0360048	47.6389	0.12231	1	10	0.00506965	0.000177062	0.0348809	0.00176969	0.0349258	2.90442
1823.25	28.7668	1.50573	28.8061	-2.99629	344.955	0.39976	0.0363571	57.9731	0.158399	1	10	0.00506664	0.000175887	0.0346674	0.00181459	0.0347148	2.99629
1443.61	28.9729	1.56593	29.0152	-3.09371	347.068	0.399752	0.0360029	70.4039	0.205064	1	10	0.00506697	0.000174631	0.0344144	0.00186003	0.0344647	3.09371
1142.44	29.2103	1.67072	29.2581	-3.27354	349.182	0.399762	0.0358351	83.3838	0.271894	1	10	0.00507122	0.000173327	0.0341228	0.0019517	0.0341786	3.27354
905.289	29.4942	1.7783	29.5478	-3.45037	351.293	0.399759	0.0352628	98.8615	0.358087	1	10	0.00506808	0.000171522	0.0337821	0.00203683	0.0338435	3.45037
716.146	29.7326	1.75984	29.7846	-3.38733	353.399	0.399758	0.0362098	126.283	0.440868	1	10	0.00506333	0.000169998	0.0335157	0.00198376	0.0335744	3.38733
567.36	29.9549	1.88073	30.0139	-3.59262	355.754	0.399742	0.0229288	149.154	0.585655	1	11	0.0050715	0.000168971	0.0332524	0.00208776	0.0333179	3.59262
448.994	30.2457	1.97415	30.31	-3.73443	357.868	0.399752	0.023026	179.556	0.761706	1	11	0.00507475	0.000167428	0.0329223	0.00214886	0.0329924	3.73443
355.569	30.5345	2.04948	30.6033	-3.83994	359.975	0.399746	0.0227501	218.4	0.979504	1	11	0.00507114	0.000165706	0.0326029	0.00218831	0.0326763	3.83994
281.531	30.8489	2.12838	30.9222	-3.94679	362.075	0.399746	0.022735	265.61	1.25835	1	11	0.00507058	0.000163978	0.0322625	0.00222591	0.0323392	3.94679
222.79	31.156	2.23894	31.2364	-4.11033	364.204	0.399744	0.0225099	319.068	1.63925	1	11	0.00506892	0.000162276	0.0319316	0.00229467	0.032014	4.11033
176.411	31.5025	2.3369	31.5891	-4.24251	366.298	0.39974	0.0225655	386.059	2.11281	1	11	0.00506987	0.000160494	0.0315697	0.00234189	0.0316565	4.24251
139.687	31.8723	2.44742	31.9661	-4.39103	368.413	0.399752	0.0226454	465.539	2.72893	1	11	0.00507186	0.000158664	0.0311913	0.00239513	0.0312832	4.39103
110.46	32.2166	2.51431	32.3146	-4.46253	370.516	0.399739	0.0223934	573.058	3.46927	1	11	0.00506857	0.000156851	0.030852	0.0024078	0.0309458	4.46253
87.4534	32.6131	2.65524	32.721	-4.65455	372.683	0.399741	0.0222028	685.394	4.5133	1	11	0.00507043	0.00015496	0.0304606	0.00247999	0.0305614	4.65455
69.3124	32.946	2.71194	33.0574	-4.70568	374.814	0.399747	0.0221342	846.699	5.69839	1	11	0.00506277	0.000153151	0.0301485	0.00248167	0.0302504	4.70568
54.8771	33.3571	2.84275	33.478	-4.87108	376.928	0.399751	0.0220699	1020.21	7.35613	1	11	0.00506236	0.000151214	0.0297625	0.00253641	0.0298704	4.87108
43.4028	33.8027	2.98367	33.9341	-5.04427	379.112	0.399744	0.0220266	1229	9.50126	1	11	0.0050685	0.000149363	0.0293548	0.00259106	0.0294689	5.04427
34.3946	34.2262	3.07912	34.3644	-5.14072	381.256	0.399743	0.0217971	1502.8	12.0653	1	11	0.00506642	0.000147432	0.0289829	0.00260741	0.0290999	5.14072
27.2023	34.6846	3.2009	34.832	-5.27265	383.208	0.399741	0.0217457	1827.86	15.4358	1	11	0.00506765	0.000145488	0.0285878	0.00263825	0.0287092	5.27265
21.5517	35.1273	3.35809	35.2874	-5.46075	385.178	0.399733	0.0216983	2199.1	19.9154	1	11	0.00506529	0.000143544	0.0282101	0.00269682	0.0283387	5.46075
17.0579	35.6253	3.48866	35.7957	-5.59295	387.051	0.399725	0.0213093	2674.46	25.4035	1	11	0.00506747	0.000141566	0.0278034	0.00272269	0.0279363	5.59295
13.5009	36.1324	3.69563	36.3209	-5.83991	389.381	0.399752	0.0216596	3189.85	33.0242	1	11	0.00506894	0.00013956	0.0273894	0.00280139	0.0275323	5.83991
10.6874	36.6341	3.84976	36.8358	-5.99901	391.364	0.399734	0.0214975	3868.25	42.2514	1	11	0.00506496	0.000137501	0.0269988	0.00283722	0.0271475	5.99901
8.45508	37.1929	4.09326	37.4174	-6.28041	393.836	0.399753	0.0215881	4598.68	55.033	1	11	0.00506993	0.000135497	0.0265651	0.00292362	0.0267255	6.28041
6.70026	37.7563	4.32739	38.0035	-6.53836	396.923	0.399735	0.0210455	5489.11	71.1719	1	11	0.00506982	0.000133404	0.0261422	0.00299626	0.0263134	6.53836
5.3038	38.3156	4.61049	38.592	-6.86138	400.793	0.399754	0.0211838	6508.57	92.8936	1	11	0.00506791	0.00013132	0.0257265	0.00309566	0.0259121	6.86138
4.20027	38.9168	4.91623	39.2261	-7.19985	405.651	0.399757	0.0211777	7707.45	121.067	1	11	0.00506709	0.000129177	0.0252922	0.00319509	0.0254933	7.19985
3.32447	39.5732	5.27196	39.9228	-7.58829	411.763	0.399754	0.0208891	9080.84	158.354	1	11	0.00506924	0.000126976	0.024829	0.00330773	0.0250484	7.58829
2.63224	40.2288	5.67061	40.6265	-8.02349	419.455	0.399759	0.0207402	10662.6	207.733	1	11	0.00506753	0.000124735	0.0243735	0.00343567	0.0246145	8.02349
2.08167	40.9485	6.15309	41.4082	-8.54556	429.155	0.399755	0.0203224	12425.6	274.365	1	11	0.00506957	0.000122429	0.0238817	0.00358856	0.0241498	8.54556
1.64786	41.6851	6.72521	42.2241	-9.16478	442.648	0.399751	0.0187096	14361.3	364.322	1	12	0.00506962	0.000120065	0.0233808	0.00377212	0.0236832	9.16478
1.30687	42.471	7.40526	43.1118	-9.89069	458.046	0.399755	0.0182788	16445.4	485.216	1	12	0.00507118	0.000117629	0.0228508	0.00398427	0.0231955	9.89069
1.0334	43.3047	8.21218	44.0765	-10.7379	477.494	0.399754	0.0177992	18754	651.024	1	12	0.00507013	0.00011503	0.0222906	0.00422713	0.0226878	10.7379
0.818491	44.2103	9.17296	45.1519	-11.7217	502.023	0.399759	0.0171541	21198.1	874.909	1	12	0.00507011	0.00011229	0.0216856	0.00449943	0.0221475	11.7217
0.647803	45.1747	10.3753	46.3508	-12.9348	532.995	0.399755	0.0164424	23679.8	1186.49	1	12	0.00506916	0.000109365	0.0210272	0.00482931	0.0215746	12.9348
0.512698	46.2159	11.7992	47.6983	-14.322	572.106	0.399756	0.0155632	26309	1609.92	1	12	0.00507036	0.000106301	0.0203135	0.00518618	0.0209651	14.322
0.405886	47.3709	13.5017	49.2575	-15.9087	621.489	0.399759	0.0147712	29042	2182.03	1	12	0.00507022	0.000102933	0.0195239	0.00556474	0.0203015	15.9087
0.321502	48.649	15.5796	51.0828	-17.7574	683.812	0.399754	0.0138131	31774.6	2955.59	1	12	0.00507036	9.92578e-05	0.0186434	0.00597046	0.0195761	17.7574
0.254446	50.0888	18.1115	53.2627	-19.8794	762.538	0.399756	0.0128522	34535.8	3993.33	1	12	0.0050703	9.51942e-05	0.0176561	0.00638425	0.0187749	19.8794
0.201436	51.712	21.2011	55.8893	-22.2929	861.961	0.399756	0.0118955	37266.9	5362.71	1	12	0.00507019	9.07184e-05	0.0165552	0.00678737	0.0178925	22.2929
0.159693	53.5475	24.8873	59.0484	-24.9276	987.352	0.399754	0.0108202	40045.7	7113.72	1	12	0.00506986	8.58594e-05	0.0153576	0.00713776	0.0169353	24.9276
0.126195	55.6837	29.4332	62.984	-27.86	1146.01	0.399757	0.0098542	42848.9	9357.37	1	12	0.0050689	8.04792e-05	0.0140368	0.00741954	0.015877	27.86
0.0999105	58.1621	34.8532	67.8054	-30.9318	1346.38	0.399751	0.00882123	45705.3	12076	1	12	0.0050695	7.47654e-05	0.0126506	0.00758078	0.0147481	30.9318