File: Input_data/[1] JJ1-53 1st SC total meas_07_CV.mpt
EC-Lab ASCII FILE
Nb header lines : 56

Cyclic Voltammetry

Run on channel : 1 (SN 31418)
User :
CE vs. WE compliance from -10 V to 10 V
Electrode connection : standard
Ewe ctrl range : min = -10.00 V, max = 10.00 V
Safety Limits :
	Do not start on E overload
Acquisition started on : 01/25/2023 15:21:28
Technique started on : 01/25/2023 16:19:24
Saved on :
	File : [1] JJ1-53 1st SC total meas_07_CV.mpr
	Directory : C:\Users\Potentiostat\Documents\EC-Lab\Data\Supercapacitor until 2021 02\(230125) SC JJ1-53 54 lower CB better viscosity\
	Host : 127.0.0.1
Device : SP-150 (SN 1275)
Address : USB
EC-Lab for windows v11.16 (software)
Internet server v11.16 (firmware)
Command interpretor v11.16 (firmware)
Electrode material : Au/Pd
Initial state :
Electrolyte : NaCl (0.2M)
Comments : Fe(CN)63-/Fe(CN)64- 5.10-3 M
Reference electrode : SCE Saturated Calomel Electrode (0.241 V)
Electrode surface area : 0.001 cm²
Characteristic mass : 0.001 g
Equivalent Weight : 0.000 g/eq.
Density : 0.000 g/cm3
Cycle Definition : Charge/Discharge alternance
Ei (V)              0.000
vs.                 Ref
dE/dt               2.000
dE/dt unit          mV/s
E1 (V)              0.800
vs.                 Ref
Step percent        50
N                   10
E range min (V)     -10.000
E range max (V)     10.000
I Range             Auto
I Range min         Unset
I Range max         Unset
I Range init        Unset
Bandwidth           7
E2 (V)              0.000
vs.                 Ref
nc cycles           2
Reverse Scan        0
Ef (V)              0.000
vs.                 Eoc

mode	ox/red	error	control changes	counter inc.	time/s	control/V	Ewe/V	<I>/mA	cycle number	(Q-Qo)/C	P/W
2	1	0	1	0	3476.42	0.000439855	0.000113209	-0.499439	1	0.0000000E+000	-5.65412e-08
2	1	0	0	0	3480.35	0.00829228	0.00790105	-0.269275	1	-0.00137943	-2.12756e-06
2	1	0	0	0	3484.96	0.0175307	0.0171638	-0.16663	1	-0.00234861	-2.85999e-06
2	1	0	0	0	3489.58	0.0267689	0.0263584	-0.106726	1	-0.00295934	-2.81312e-06
2	1	0	1	0	3494.2	0.0360071	0.0356305	-0.0652013	1	-0.00334147	-2.32315e-06
2	1	0	1	0	3498.98	0.0455533	0.0451562	-0.0338717	1	-0.00356433	-1.52951e-06
2	1	0	0	0	3503.6	0.0547915	0.054372	-0.0103779	1	-0.00365443	-5.64266e-07
2	1	0	1	0	3509.14	0.0658775	0.065435	0.0123285	1	-0.00363567	8.06715e-07
2	1	0	1	0	3513.76	0.0751158	0.0747867	0.0281837	1	-0.00353204	2.10777e-06
2	1	0	0	0	3518.38	0.0843539	0.0840216	0.0410405	1	-0.00336212	3.44829e-06
2	1	0	0	0	3523	0.0935922	0.0932237	0.0522344	1	-0.00313641	4.86948e-06
2	1	0	0	0	3527.61	0.10283	0.102442	0.0622046	1	-0.00286251	6.37234e-06
2	1	0	1	0	3532.23	0.112069	0.111686	0.0710525	1	-0.00254499	7.93559e-06
2	1	0	1	0	3536.85	0.121307	0.120922	0.0791811	1	-0.00218778	9.57477e-06
2	1	0	1	0	3541.47	0.130545	0.130129	0.0864128	1	-0.00179606	1.12448e-05
2	1	0	0	0	3546.09	0.139783	0.139409	0.0929864	1	-0.00137335	1.29632e-05
2	1	0	0	0	3550.86	0.14933	0.148888	0.0992633	1	-0.000905455	1.47791e-05
2	1	0	1	0	3555.48	0.158568	0.158256	0.105203	1	-0.0004238	1.6649e-05
2	1	0	1	0	3560.1	0.167806	0.167424	0.110383	1	8.3008e-05	1.84808e-05
2	1	0	1	0	3564.72	0.177044	0.176652	0.115276	1	0.000613225	2.03637e-05
2	1	0	0	0	3569.34	0.186283	0.185876	0.120073	1	0.00116631	2.23187e-05
2	1	0	0	0	3573.96	0.195521	0.195138	0.125012	1	0.00174205	2.43946e-05
2	1	0	0	0	3578.58	0.204759	0.204343	0.129419	1	0.00233916	2.64459e-05
2	1	0	1	0	3583.2	0.213997	0.213597	0.13358	1	0.00295633	2.85323e-05
2	1	0	1	0	3587.82	0.223236	0.222811	0.138071	1	0.00359321	3.07636e-05
2	1	0	1	0	3592.44	0.232474	0.232146	0.142617	1	0.00425029	3.3108e-05
2	1	0	0	0	3597.06	0.241712	0.241337	0.146582	1	0.00492753	3.53755e-05
2	1	0	0	0	3601.67	0.25095	0.250598	0.150569	1	0.00562324	3.77323e-05
2	1	0	1	0	3606.29	0.260189	0.25977	0.154633	1	0.006337	4.01689e-05
2	1	0	1	0	3610.91	0.269427	0.26904	0.158607	1	0.0070695	4.26715e-05
2	1	0	1	0	3615.53	0.278665	0.278302	0.162746	1	0.00782122	4.52926e-05
2	1	0	0	0	3620.15	0.287903	0.287572	0.166665	1	0.00859079	4.79282e-05
2	1	0	0	0	3624.77	0.297142	0.296702	0.170378	1	0.00937741	5.05515e-05
2	1	0	0	0	3629.39	0.30638	0.305929	0.174143	1	0.0101817	5.32754e-05
2	1	0	1	0	3634.01	0.315618	0.315198	0.177855	1	0.0110035	5.60594e-05
2	1	0	1	0	3638.63	0.324856	0.324389	0.181362	1	0.0118424	5.8832e-05
2	1	0	1	0	3643.25	0.334095	0.333666	0.184707	1	0.0126973	6.16304e-05
2	1	0	0	0	3647.87	0.343333	0.342893	0.18834	1	0.0135687	6.45806e-05
2	1	0	0	0	3652.49	0.352571	0.352086	0.192182	1	0.0144571	6.76646e-05
2	1	0	1	0	3657.1	0.361809	0.361356	0.195565	1	0.0153619	7.06685e-05
2	1	0	1	0	3661.72	0.371048	0.370616	0.198668	1	0.0162821	7.36297e-05
2	1	0	1	0	3666.34	0.380286	0.379876	0.202443	1	0.0172179	7.69032e-05
2	1	0	0	0	3670.96	0.389524	0.389073	0.206206	1	0.0181707	8.02294e-05
2	1	0	0	0	3675.58	0.398762	0.398308	0.209714	1	0.0191409	8.3531e-05
2	1	0	0	0	3680.2	0.408001	0.407591	0.213425	1	0.0201275	8.69901e-05
2	1	0	1	0	3684.82	0.417239	0.416757	0.217123	1	0.0211306	9.04874e-05
2	1	0	1	0	3689.44	0.426477	0.426023	0.221249	1	0.0221523	9.42572e-05
2	1	0	1	0	3694.06	0.435716	0.435281	0.22566	1	0.023194	9.82254e-05
2	1	0	0	0	3698.68	0.444954	0.444589	0.229999	1	0.024255	0.000102255
2	1	0	0	0	3703.3	0.454192	0.453733	0.234398	1	0.0253358	0.000106354
2	1	0	0	0	3707.91	0.46343	0.462982	0.239125	1	0.0264384	0.000110711
2	1	0	1	0	3712.53	0.472668	0.472183	0.244488	1	0.027565	0.000115443
2	1	0	1	0	3717.15	0.481907	0.481466	0.249466	1	0.0287153	0.000120109
2	1	0	0	0	3721.77	0.491145	0.490688	0.254733	1	0.0298896	0.000124994
2	1	0	0	0	3726.39	0.500383	0.49997	0.260563	1	0.0310894	0.000130274
2	1	0	0	0	3731.01	0.509622	0.509174	0.266846	1	0.0323169	0.000135871
2	1	0	1	0	3735.63	0.51886	0.51846	0.272869	1	0.0335729	0.000141471
2	1	0	1	0	3740.25	0.528098	0.527658	0.278925	1	0.0348572	0.000147177
2	1	0	1	0	3744.87	0.537336	0.536878	0.28567	1	0.0361708	0.00015337
2	1	0	0	0	3749.49	0.546574	0.546144	0.292643	1	0.0375159	0.000159825
2	1	0	0	0	3754.11	0.555813	0.555418	0.299687	1	0.0388939	0.000166452
2	1	0	0	0	3758.73	0.565051	0.564628	0.306834	1	0.0403044	0.000173247
2	1	0	1	0	3763.34	0.574289	0.573849	0.314053	1	0.0417471	0.000180219
2	1	0	1	0	3767.96	0.583528	0.583067	0.321573	1	0.0432242	0.000187499
2	1	0	1	0	3772.58	0.592766	0.592387	0.329503	1	0.0447374	0.000195193
2	1	0	0	0	3777.2	0.602004	0.601546	0.337076	1	0.046286	0.000202767
2	1	0	0	0	3781.82	0.611242	0.610806	0.344474	1	0.0478693	0.000210407
2	1	0	1	0	3786.44	0.62048	0.620041	0.352361	1	0.0494885	0.000218478
2	1	0	1	0	3791.06	0.629719	0.629307	0.360645	1	0.0511455	0.000226957
2	1	0	1	0	3795.68	0.638957	0.638519	0.368148	1	0.0528388	0.00023507
2	1	0	0	0	3800.3	0.648195	0.647718	0.375359	1	0.0545664	0.000243126
2	1	0	0	0	3804.92	0.657434	0.657068	0.382969	1	0.0563281	0.000251637
2	1	0	0	0	3809.54	0.666672	0.666284	0.390728	1	0.0581244	0.000260336
2	1	0	1	0	3814.15	0.67591	0.675484	0.397592	1	0.0599547	0.000268567
2	1	0	1	0	3818.77	0.685148	0.684738	0.404381	1	0.0618171	0.000276895
2	1	0	1	0	3823.39	0.694387	0.693967	0.411441	1	0.0637109	0.000285526
2	1	0	0	0	3828.01	0.703625	0.703178	0.418665	1	0.0656379	0.000294396
2	1	0	0	0	3832.63	0.712863	0.712482	0.426299	1	0.0676	0.000303731
2	1	0	1	0	3837.25	0.722101	0.721703	0.433912	1	0.0695962	0.000313156
2	1	0	1	0	3841.87	0.731339	0.730947	0.441964	1	0.071628	0.000323052
2	1	0	1	0	3846.49	0.740578	0.740187	0.450801	1	0.073699	0.000333677
2	1	0	0	0	3851.11	0.749816	0.749396	0.460373	1	0.0758132	0.000345001
2	1	0	0	0	3855.73	0.759054	0.758698	0.470234	1	0.0779719	0.000356766
2	1	0	0	0	3860.35	0.768293	0.767888	0.480628	1	0.0801775	0.000369068
2	1	0	1	0	3864.97	0.777531	0.777123	0.492026	1	0.0824343	0.000382365
2	1	0	1	0	3869.58	0.786769	0.786407	0.504607	1	0.0847464	0.000396826
2	1	0	1	0	3874.2	0.796007	0.795619	0.517046	1	0.0871163	0.000411371
2	0	0	1	0	3876.98	0.798163	0.797704	0.460822	1	0.0885152	0.000367599
2	0	0	0	0	3881.59	0.788925	0.788504	0.27223	1	0.0901383	0.000214654
2	0	0	0	0	3886.21	0.779686	0.779256	0.167939	1	0.0911251	0.000130867
2	0	0	1	0	3890.83	0.770448	0.770007	0.0963222	1	0.091715	7.41688e-05
2	0	0	1	0	3895.61	0.760902	0.76054	0.0406645	1	0.0920238	3.0927e-05
2	0	0	0	0	3900.61	0.750894	0.750517	-0.00555271	1	0.0920942	-4.16741e-06
2	0	0	0	0	3905.31	0.741501	0.741095	-0.0411809	1	0.0919711	-3.0519e-05
2	0	0	1	0	3909.93	0.732263	0.731869	-0.0699244	1	0.0917018	-5.11755e-05
2	0	0	1	0	3914.62	0.722871	0.722474	-0.0945478	1	0.0913024	-6.83083e-05
2	0	0	1	0	3919.32	0.713479	0.713078	-0.116117	1	0.0907959	-8.28004e-05
2	0	0	0	0	3923.94	0.704241	0.703806	-0.134696	1	0.0902061	-9.47999e-05
2	0	0	0	0	3928.56	0.695002	0.694564	-0.150279	1	0.089537	-0.000104379
2	0	0	0	0	3933.17	0.685764	0.685338	-0.163925	1	0.0888004	-0.000112344
2	0	0	1	0	3937.79	0.676526	0.676146	-0.176172	1	0.0880047	-0.000119118
2	0	0	1	0	3942.41	0.667288	0.666861	-0.187136	1	0.0871554	-0.000124794
2	0	0	0	0	3947.03	0.658049	0.657596	-0.197109	1	0.0862571	-0.000129618
2	0	0	0	0	3951.65	0.648811	0.648387	-0.205765	1	0.0853169	-0.000133416
2	0	0	0	0	3956.27	0.639573	0.639185	-0.213534	1	0.0843396	-0.000136488
2	0	0	1	0	3960.89	0.630335	0.629953	-0.220595	1	0.0833277	-0.000138964
2	0	0	1	0	3965.51	0.621096	0.620619	-0.227461	1	0.0822826	-0.000141167
2	0	0	1	0	3970.13	0.611858	0.611409	-0.232959	1	0.0812097	-0.000142433
2	0	0	0	0	3974.75	0.60262	0.602242	-0.237829	1	0.0801124	-0.000143231
2	0	0	0	0	3979.37	0.593381	0.592997	-0.242748	1	0.0789923	-0.000143949
2	0	0	0	0	3983.99	0.584143	0.583717	-0.247511	1	0.0778501	-0.000144476
2	0	0	1	0	3988.6	0.574905	0.574407	-0.251308	1	0.0766882	-0.000144353
2	0	0	1	0	3993.22	0.565667	0.565266	-0.2546	1	0.0755095	-0.000143917
2	0	0	0	0	3997.84	0.556429	0.556035	-0.25811	1	0.0743156	-0.000143518
2	0	0	0	0	4002.46	0.54719	0.546723	-0.261373	1	0.0731065	-0.000142899
2	0	0	0	0	4007.08	0.537952	0.537563	-0.263966	1	0.0718834	-0.000141898
2	0	0	1	0	4011.7	0.528714	0.528295	-0.26634	1	0.0706491	-0.000140706
2	0	0	1	0	4016.32	0.519476	0.519048	-0.268365	1	0.0694052	-0.000139294
2	0	0	1	0	4020.94	0.510237	0.509759	-0.27022	1	0.0681522	-0.000137747
2	0	0	0	0	4025.56	0.500999	0.500563	-0.271774	1	0.0668911	-0.00013604
2	0	0	0	0	4030.18	0.491761	0.491329	-0.272452	1	0.0656254	-0.000133863
2	0	0	0	0	4034.8	0.482523	0.482119	-0.272171	1	0.064359	-0.000131219
2	0	0	1	0	4039.41	0.473284	0.472869	-0.271499	1	0.0630942	-0.000128383
2	0	0	1	0	4044.03	0.464046	0.463632	-0.270478	1	0.0618329	-0.000125402
2	0	0	1	0	4048.65	0.454808	0.454368	-0.268401	1	0.0605791	-0.000121953
2	0	0	0	0	4053.27	0.44557	0.445162	-0.266138	1	0.0593349	-0.000118474
2	0	0	0	0	4057.89	0.436331	0.43587	-0.264243	1	0.0581003	-0.000115176
2	0	0	1	0	4062.51	0.427093	0.426653	-0.262701	1	0.0568743	-0.000112082
2	0	0	1	0	4067.13	0.417855	0.417401	-0.260869	1	0.0556561	-0.000108887
2	0	0	1	0	4071.75	0.408617	0.408174	-0.25922	1	0.0544456	-0.000105807
2	0	0	0	0	4076.37	0.399378	0.399001	-0.258331	1	0.0532413	-0.000103074
2	0	0	0	0	4080.99	0.39014	0.389701	-0.257923	1	0.0520401	-0.000100513
2	0	0	0	0	4085.61	0.380902	0.380459	-0.257688	1	0.0508398	-9.80396e-05
2	0	0	1	0	4090.23	0.371664	0.371235	-0.257739	1	0.0496403	-9.56816e-05
2	0	0	1	0	4094.84	0.362425	0.361995	-0.258083	1	0.0484406	-9.34247e-05
2	0	0	0	0	4099.46	0.353187	0.352735	-0.258974	1	0.0472377	-9.1349e-05
2	0	0	0	0	4104.08	0.343949	0.343484	-0.260131	1	0.0460298	-8.9351e-05
2	0	0	0	0	4108.7	0.334711	0.334249	-0.261133	1	0.0448173	-8.72833e-05
2	0	0	1	0	4113.32	0.325472	0.325088	-0.262098	1	0.0436004	-8.52049e-05
2	0	0	1	0	4117.94	0.316234	0.315797	-0.26335	1	0.0423777	-8.3165e-05
2	0	0	1	0	4122.56	0.306996	0.306609	-0.26448	1	0.0411493	-8.1092e-05
2	0	0	0	0	4127.18	0.297758	0.297378	-0.265625	1	0.0399155	-7.8991e-05
2	0	0	0	0	4131.8	0.288519	0.288135	-0.266508	1	0.0386768	-7.67904e-05
2	0	0	0	0	4136.42	0.279281	0.278909	-0.267679	1	0.0374335	-7.46582e-05
2	0	0	1	0	4141.04	0.270043	0.269672	-0.269003	1	0.0361852	-7.25424e-05
2	0	0	1	0	4145.65	0.260804	0.260374	-0.269599	1	0.0349324	-7.01966e-05
2	0	0	1	0	4150.27	0.251566	0.251207	-0.270117	1	0.0336766	-6.78552e-05
2	0	0	0	0	4154.89	0.242328	0.241965	-0.270757	1	0.0324185	-6.55137e-05
2	0	0	0	0	4159.51	0.23309	0.232712	-0.271237	1	0.0311575	-6.312e-05
2	0	0	1	0	4164.13	0.223852	0.223494	-0.271762	1	0.0298937	-6.07371e-05
2	0	0	1	0	4168.75	0.214613	0.214192	-0.271989	1	0.0286289	-5.82579e-05
2	0	0	1	0	4173.37	0.205375	0.204993	-0.272059	1	0.0273641	-5.57702e-05
2	0	0	0	0	4177.99	0.196137	0.195774	-0.272154	1	0.0260988	-5.32807e-05
2	0	0	0	0	4182.61	0.186898	0.186504	-0.272175	1	0.0248327	-5.07617e-05
2	0	0	0	0	4187.23	0.17766	0.177268	-0.271858	1	0.0235677	-4.81917e-05
2	0	0	1	0	4191.85	0.168422	0.168066	-0.271373	1	0.0223044	-4.56085e-05
2	0	0	1	0	4196.47	0.159184	0.158797	-0.271008	1	0.0210425	-4.30352e-05
2	0	0	1	0	4201.08	0.149946	0.149519	-0.271004	1	0.0197814	-4.05203e-05
2	0	0	0	0	4205.7	0.140707	0.140324	-0.270407	1	0.0185218	-3.79445e-05
2	0	0	0	0	4210.32	0.131469	0.131078	-0.269745	1	0.0172647	-3.53577e-05
2	0	0	1	0	4214.94	0.122231	0.121838	-0.26962	1	0.0160098	-3.28499e-05
2	0	0	1	0	4219.56	0.112993	0.112614	-0.269563	1	0.0147559	-3.03565e-05
2	0	0	1	0	4224.18	0.103754	0.103293	-0.269122	1	0.0135028	-2.77983e-05
2	0	0	0	0	4228.8	0.0945161	0.094081	-0.268794	1	0.0122513	-2.52884e-05
2	0	0	0	0	4233.42	0.0852778	0.0848947	-0.268637	1	0.0110012	-2.28059e-05
2	0	0	0	0	4238.04	0.0760395	0.0756438	-0.268644	1	0.00975124	-2.03212e-05
2	0	0	1	0	4242.66	0.0668013	0.0664046	-0.268929	1	0.00850011	-1.78581e-05
2	0	0	1	0	4247.28	0.057563	0.0571515	-0.269003	1	0.00724905	-1.53739e-05
2	0	0	1	0	4251.89	0.0483247	0.0479728	-0.269127	1	0.00599804	-1.29108e-05
2	0	0	0	0	4256.51	0.0390865	0.0386997	-0.269508	1	0.00474564	-1.04298e-05
2	0	0	0	0	4261.13	0.0298482	0.0294624	-0.270013	1	0.00349054	-7.95525e-06
2	0	0	1	0	4265.75	0.0206101	0.0201587	-0.270352	1	0.00223366	-5.44994e-06
2	0	0	1	0	4270.37	0.0113718	0.010982	-0.270719	1	0.000974916	-2.97303e-06
2	0	0	1	0	4274.99	0.00213358	0.00175445	-0.271477	1	-0.000286825	-4.76293e-07
2	1	0	0	1	4276.84	0.00182564	0.00144041	-0.220331	2	-0.000750683	-3.17368e-07
2	1	0	1	1	4281.46	0.0110638	0.0107231	-0.0961738	2	-0.00141879	-1.03128e-06
2	1	0	1	1	4286.23	0.02061	0.0202201	-0.0411018	2	-0.00172403	-8.31082e-07
2	1	0	0	1	4290.85	0.0298482	0.029471	-0.00786193	2	-0.00182262	-2.31699e-07
2	1	0	1	1	4296.08	0.0403182	0.0399387	0.018776	2	-0.00177955	7.4989e-07
2	1	0	1	1	4300.7	0.0495566	0.0492141	0.0363329	2	-0.00164144	1.78809e-06
2	1	0	1	1	4305.32	0.0587948	0.0583875	0.0503241	2	-0.00143098	2.9383e-06
2	1	0	0	1	4309.94	0.068033	0.0676119	0.062182	2	-0.00116071	4.20424e-06
2	1	0	0	1	4314.56	0.0772714	0.0769307	0.0724778	2	-0.000839515	5.57577e-06
2	1	0	0	1	4319.18	0.0865096	0.0861901	0.081042	2	-0.000474832	6.98502e-06
2	1	0	1	1	4323.8	0.0957478	0.0953031	0.0884802	2	-7.31633e-05	8.43243e-06
2	1	0	1	1	4328.5	0.10514	0.104729	0.0954933	2	0.000368965	1.00009e-05
2	1	0	0	1	4333.19	0.114532	0.114167	0.102018	2	0.000841924	1.1647e-05
2	1	0	0	1	4337.81	0.123771	0.123341	0.107498	2	0.00133516	1.32589e-05
2	1	0	0	1	4342.43	0.133009	0.132585	0.112515	2	0.00185292	1.49177e-05
2	1	0	1	1	4347.05	0.142247	0.141787	0.117384	2	0.00239298	1.66435e-05
2	1	0	1	1	4351.67	0.151485	0.150993	0.121895	2	0.00295495	1.84053e-05
2	1	0	1	1	4356.29	0.160724	0.160378	0.126477	2	0.0035388	2.0284e-05
2	1	0	0	1	4360.91	0.169962	0.169598	0.130552	2	0.00414141	2.21414e-05
2	1	0	0	1	4365.53	0.1792	0.178807	0.134447	2	0.00476181	2.40402e-05
2	1	0	1	1	4370.14	0.188438	0.188021	0.138306	2	0.00540038	2.60045e-05
2	1	0	1	1	4374.76	0.197676	0.19728	0.142156	2	0.00605724	2.80446e-05
2	1	0	1	1	4379.38	0.206915	0.206539	0.145688	2	0.00673102	3.00902e-05
2	1	0	0	1	4384	0.216153	0.215697	0.149063	2	0.00742093	3.21525e-05
2	1	0	0	1	4388.62	0.225391	0.224995	0.152648	2	0.00812723	3.4345e-05
2	1	0	0	1	4393.24	0.23463	0.234295	0.156505	2	0.00885057	3.66683e-05
2	1	0	1	1	4397.86	0.243868	0.243516	0.15975	2	0.00959023	3.89017e-05
2	1	0	1	1	4402.48	0.253106	0.252687	0.162916	2	0.0103454	4.11667e-05
2	1	0	1	1	4407.1	0.262344	0.261935	0.166575	2	0.0111158	4.36317e-05
2	1	0	0	1	4411.72	0.271582	0.271213	0.170243	2	0.0119027	4.61723e-05
2	1	0	0	1	4416.34	0.280821	0.280402	0.17347	2	0.0127058	4.86413e-05
2	1	0	1	1	4420.96	0.290059	0.289679	0.17668	2	0.0135237	5.11806e-05
2	1	0	1	1	4425.57	0.299297	0.298858	0.17991	2	0.0143562	5.37674e-05
2	1	0	1	1	4430.19	0.308535	0.308164	0.18325	2	0.0152042	5.6471e-05
2	1	0	0	1	4434.81	0.317774	0.317341	0.18662	2	0.0160675	5.92222e-05
2	1	0	0	1	4439.43	0.327012	0.326532	0.189872	2	0.0169457	6.19993e-05
2	1	0	0	1	4444.05	0.33625	0.335778	0.192962	2	0.0178381	6.47922e-05
2	1	0	1	1	4448.67	0.345488	0.34504	0.196228	2	0.0187457	6.77064e-05
2	1	0	1	1	4453.29	0.354727	0.354284	0.199554	2	0.0196689	7.06989e-05
2	1	0	1	1	4457.91	0.363965	0.363541	0.202713	2	0.0206072	7.36945e-05
2	1	0	0	1	4462.53	0.373203	0.372706	0.205786	2	0.0215601	7.66978e-05
2	1	0	0	1	4467.15	0.382442	0.381996	0.209417	2	0.0225288	7.99966e-05
2	1	0	0	1	4471.77	0.39168	0.391277	0.213307	2	0.0235143	8.3462e-05
2	1	0	1	1	4476.38	0.400918	0.400448	0.216774	2	0.0245168	8.68068e-05
2	1	0	1	1	4481	0.410156	0.409731	0.220386	2	0.0255363	9.02988e-05
2	1	0	0	1	4485.62	0.419394	0.418933	0.22463	2	0.0265735	9.41048e-05
2	1	0	0	1	4490.24	0.428633	0.428198	0.228984	2	0.0276303	9.80502e-05
2	1	0	0	1	4494.86	0.437871	0.437438	0.233459	2	0.0287079	0.000102124
2	1	0	1	1	4499.48	0.447109	0.44669	0.238039	2	0.029806	0.00010633
2	1	0	1	1	4504.1	0.456348	0.455856	0.242824	2	0.0309253	0.000110693
2	1	0	1	1	4508.72	0.465586	0.4651	0.248012	2	0.032068	0.000115351
2	1	0	0	1	4513.34	0.474824	0.474407	0.25374	2	0.0332365	0.000120376
2	1	0	0	1	4517.96	0.484062	0.483686	0.259165	2	0.0344297	0.000125354
2	1	0	1	1	4522.58	0.4933	0.492919	0.264726	2	0.0356483	0.000130489
2	1	0	1	1	4527.2	0.502539	0.502122	0.270775	2	0.0368942	0.000135962
2	1	0	1	1	4531.81	0.511777	0.511378	0.277171	2	0.0381692	0.000141739
2	1	0	0	1	4536.43	0.521015	0.520617	0.28343	2	0.0394737	0.000147559
2	1	0	0	1	4541.05	0.530254	0.52979	0.289807	2	0.0408077	0.000153537
2	1	0	0	1	4545.67	0.539492	0.539035	0.296759	2	0.0421722	0.000159964
2	1	0	1	1	4550.29	0.54873	0.548295	0.304218	2	0.0435694	0.000166801
2	1	0	1	1	4554.91	0.557968	0.557548	0.311158	2	0.0449999	0.000173485
2	1	0	1	1	4559.53	0.567207	0.566788	0.318021	2	0.0464628	0.000180251
2	1	0	0	1	4564.15	0.576445	0.57598	0.32555	2	0.0479588	0.00018751
2	1	0	0	1	4568.77	0.585683	0.585218	0.333255	2	0.0494901	0.000195027
2	1	0	0	1	4573.39	0.594921	0.594493	0.341034	2	0.0510576	0.000202743
2	1	0	1	1	4578.01	0.60416	0.603694	0.348689	2	0.0526601	0.000210502
2	1	0	1	1	4582.62	0.613398	0.612953	0.356295	2	0.0542972	0.000218392
2	1	0	0	1	4587.24	0.622636	0.622193	0.364223	2	0.0559706	0.000226617
2	1	0	0	1	4591.86	0.631874	0.631466	0.37247	2	0.0576821	0.000235202
2	1	0	0	1	4596.48	0.641113	0.640764	0.37995	2	0.0594292	0.000243458
2	1	0	1	1	4601.1	0.650351	0.649864	0.387257	2	0.0612104	0.000251665
2	1	0	1	1	4605.72	0.659589	0.659201	0.39454	2	0.063026	0.000260081
2	1	0	1	1	4610.34	0.668827	0.668391	0.40208	2	0.0648761	0.000268747
2	1	0	0	1	4614.96	0.678066	0.677631	0.409043	2	0.0667597	0.000277181
2	1	0	0	1	4619.58	0.687304	0.686821	0.415598	2	0.0686748	0.000285441
2	1	0	0	1	4624.2	0.696542	0.696096	0.42268	2	0.0706211	0.000294226
2	1	0	1	1	4628.82	0.70578	0.705374	0.429979	2	0.0725996	0.000303296
2	1	0	1	1	4633.44	0.715019	0.714613	0.436776	2	0.0746111	0.000312126
2	1	0	1	1	4638.05	0.724257	0.723851	0.443694	2	0.0766546	0.000321168
2	1	0	0	1	4642.67	0.733495	0.733054	0.451208	2	0.078731	0.00033076
2	1	0	0	1	4647.29	0.742733	0.742306	0.459271	2	0.0808436	0.00034092
2	1	0	1	1	4651.91	0.751971	0.751575	0.468101	2	0.0829956	0.000351813
2	1	0	1	1	4656.53	0.76121	0.760761	0.477194	2	0.0851881	0.000363031
2	1	0	1	1	4661.15	0.770448	0.770033	0.486921	2	0.0874236	0.000374946
2	1	0	0	1	4665.77	0.779686	0.779249	0.497595	2	0.0897065	0.00038775
2	1	0	0	1	4670.39	0.788925	0.788521	0.509301	2	0.092042	0.000401594
2	1	0	0	1	4675.01	0.798163	0.797742	0.521037	2	0.0944313	0.000415653
2	0	0	1	1	4678.24	0.795083	0.794691	0.380807	2	0.0959117	0.000302624
2	0	0	1	1	4682.86	0.785845	0.785395	0.233397	2	0.0972835	0.000183309
2	0	0	0	1	4687.48	0.776607	0.77618	0.142359	2	0.0981251	0.000110497
2	0	0	0	1	4692.1	0.767369	0.766888	0.0771258	2	0.0986138	5.91468e-05
2	0	0	1	1	4696.87	0.757822	0.757385	0.0255918	2	0.0988436	1.93828e-05
2	0	0	0	1	4702.11	0.747353	0.746902	-0.0193741	2	0.0988438	-1.44705e-05
2	0	0	0	1	4706.73	0.738114	0.737729	-0.0520567	2	0.098666	-3.84037e-05
2	0	0	0	1	4711.34	0.728876	0.728448	-0.0791702	2	0.0983514	-5.76714e-05
2	0	0	1	1	4716.12	0.71933	0.718932	-0.102816	2	0.0979057	-7.39175e-05
2	0	0	1	1	4720.74	0.710092	0.70968	-0.12269	2	0.0973736	-8.70708e-05
2	0	0	0	1	4725.36	0.700853	0.700431	-0.140157	2	0.0967552	-9.81703e-05
2	0	0	0	1	4729.98	0.691615	0.691208	-0.154952	2	0.0960625	-0.000107104
2	0	0	0	1	4734.59	0.682377	0.681928	-0.167905	2	0.0953056	-0.000114499
2	0	0	1	1	4739.21	0.673139	0.672729	-0.179809	2	0.0944918	-0.000120963
2	0	0	1	1	4743.83	0.6639	0.663368	-0.190632	2	0.0936262	-0.000126459
2	0	0	1	1	4748.45	0.654662	0.654219	-0.199668	2	0.0927147	-0.000130627
2	0	0	0	1	4753.07	0.645424	0.645033	-0.207774	2	0.0917631	-0.000134021
2	0	0	0	1	4757.69	0.636185	0.635769	-0.215357	2	0.0907759	-0.000136917
2	0	0	1	1	4762.31	0.626947	0.626517	-0.222349	2	0.0897553	-0.000139305
2	0	0	1	1	4766.93	0.617709	0.617235	-0.228619	2	0.0887028	-0.000141112
2	0	0	1	1	4771.55	0.608471	0.607978	-0.234018	2	0.0876248	-0.000142278
2	0	0	1	1	4776.17	0.599232	0.598748	-0.238897	2	0.0865237	-0.000143039
2	0	0	0	1	4780.79	0.589994	0.589559	-0.243524	2	0.0854003	-0.000143572
2	0	0	0	1	4785.4	0.580756	0.580312	-0.247817	2	0.084256	-0.000143811
2	0	0	1	1	4790.02	0.571518	0.571068	-0.25144	2	0.0830938	-0.000143589
2	0	0	1	1	4794.64	0.56228	0.561893	-0.25456	2	0.0819159	-0.000143036
2	0	0	1	1	4799.26	0.553041	0.552606	-0.257604	2	0.0807234	-0.000142354
2	0	0	0	1	4803.88	0.543803	0.543393	-0.260637	2	0.0795166	-0.000141628
2	0	0	0	1	4808.5	0.534565	0.534122	-0.263004	2	0.0782973	-0.000140477
2	0	0	0	1	4813.12	0.525326	0.524924	-0.264904	2	0.077068	-0.000139054
2	0	0	1	1	4817.74	0.516088	0.515703	-0.266977	2	0.0758298	-0.000137681
2	0	0	1	1	4822.36	0.50685	0.506435	-0.268935	2	0.074583	-0.000136198
2	0	0	1	1	4826.98	0.497612	0.497163	-0.269788	2	0.0733294	-0.000134129
2	0	0	0	1	4831.6	0.488373	0.487931	-0.270101	2	0.0720728	-0.00013179
2	0	0	0	1	4836.22	0.479135	0.478748	-0.269915	2	0.0708164	-0.000129221
2	0	0	1	1	4840.83	0.469897	0.469487	-0.269114	2	0.0695621	-0.000126345
2	0	0	1	1	4845.45	0.460659	0.460211	-0.268046	2	0.0683112	-0.000123358
2	0	0	1	1	4850.07	0.451421	0.450932	-0.266271	2	0.0670683	-0.00012007
2	0	0	0	1	4854.69	0.442182	0.441758	-0.264233	2	0.0658349	-0.000116727
2	0	0	0	1	4859.31	0.432944	0.432545	-0.262471	2	0.06461	-0.000113531
2	0	0	0	1	4863.93	0.423706	0.423283	-0.260938	2	0.0633922	-0.00011045
2	0	0	1	1	4868.55	0.414467	0.414019	-0.259316	2	0.0621821	-0.000107362
2	0	0	1	1	4873.17	0.405229	0.404843	-0.257953	2	0.0609784	-0.00010443
2	0	0	1	1	4877.79	0.395991	0.395544	-0.257272	2	0.059779	-0.000101762
2	0	0	0	1	4882.41	0.386753	0.386323	-0.257311	2	0.0585813	-9.94051e-05
2	0	0	0	1	4887.03	0.377515	0.377088	-0.257231	2	0.0573838	-9.69985e-05
2	0	0	1	1	4891.64	0.368276	0.367818	-0.25747	2	0.0561857	-9.47021e-05
2	0	0	1	1	4896.26	0.359038	0.35861	-0.258521	2	0.0549846	-9.27081e-05
2	0	0	1	1	4900.88	0.3498	0.34937	-0.259942	2	0.0537786	-9.0816e-05
2	0	0	0	1	4905.5	0.340562	0.340132	-0.261249	2	0.0525658	-8.88592e-05
2	0	0	0	1	4910.12	0.331323	0.330906	-0.262691	2	0.0513465	-8.69261e-05
2	0	0	0	1	4914.74	0.322085	0.32165	-0.264322	2	0.0501206	-8.5019e-05
2	0	0	1	1	4919.36	0.312847	0.312427	-0.266114	2	0.0488863	-8.3141e-05
2	0	0	1	1	4923.98	0.303608	0.303198	-0.267934	2	0.0476439	-8.12371e-05
2	0	0	1	1	4928.6	0.29437	0.293959	-0.269671	2	0.0463936	-7.92722e-05
2	0	0	0	1	4933.22	0.285132	0.284784	-0.27113	2	0.0451365	-7.72135e-05
2	0	0	0	1	4937.84	0.275894	0.275512	-0.272561	2	0.0438722	-7.50937e-05
2	0	0	1	1	4942.46	0.266656	0.266254	-0.273972	2	0.0426009	-7.2946e-05
2	0	0	1	1	4947.07	0.257417	0.257008	-0.274905	2	0.0413241	-7.06529e-05
2	0	0	1	1	4951.69	0.248179	0.247817	-0.275542	2	0.0400435	-6.82839e-05
2	0	0	0	1	4956.31	0.238941	0.238525	-0.276365	2	0.0387592	-6.59198e-05
2	0	0	0	1	4960.93	0.229702	0.229327	-0.277235	2	0.0374714	-6.35774e-05
2	0	0	0	1	4965.55	0.220464	0.220098	-0.277397	2	0.0361813	-6.10544e-05
2	0	0	1	1	4970.17	0.211226	0.21083	-0.277296	2	0.0348906	-5.84624e-05
2	0	0	1	1	4974.79	0.201988	0.201624	-0.277389	2	0.0336002	-5.59282e-05
2	0	0	1	1	4979.41	0.192749	0.192371	-0.277453	2	0.0323097	-5.33739e-05
2	0	0	0	1	4984.03	0.183511	0.183113	-0.277097	2	0.0310196	-5.07401e-05
2	0	0	0	1	4988.65	0.174273	0.173885	-0.276624	2	0.0297315	-4.81007e-05
2	0	0	1	1	4993.27	0.165035	0.16463	-0.276001	2	0.0284467	-4.5438e-05
2	0	0	1	1	4997.88	0.155796	0.155403	-0.275504	2	0.027164	-4.28141e-05
2	0	0	1	1	5002.5	0.146558	0.146143	-0.275207	2	0.0258827	-4.02195e-05
2	0	0	0	1	5007.12	0.13732	0.136909	-0.27444	2	0.024605	-3.75732e-05
2	0	0	0	1	5011.74	0.128082	0.12772	-0.273556	2	0.023331	-3.49386e-05
2	0	0	0	1	5016.36	0.118843	0.118464	-0.272932	2	0.0220601	-3.23327e-05
2	0	0	1	1	5020.98	0.109605	0.109193	-0.272476	2	0.0207912	-2.97526e-05
2	0	0	1	1	5025.6	0.100367	0.0999688	-0.271789	2	0.019525	-2.71704e-05
2	0	0	1	1	5030.22	0.0911286	0.0907519	-0.271106	2	0.0182617	-2.46034e-05
2	0	0	0	1	5034.84	0.0818905	0.0814639	-0.270872	2	0.0170008	-2.20663e-05
2	0	0	0	1	5039.46	0.0726521	0.0722532	-0.270975	2	0.0157407	-1.95788e-05
2	0	0	0	1	5044.08	0.0634139	0.0630331	-0.270513	2	0.0144811	-1.70513e-05
2	0	0	1	1	5048.7	0.0541757	0.0538087	-0.270209	2	0.013223	-1.45396e-05
2	0	0	1	1	5053.31	0.0449373	0.0445461	-0.270248	2	0.0119657	-1.20385e-05
2	0	0	0	1	5057.93	0.0356993	0.0353558	-0.270529	2	0.0107077	-9.56477e-06
2	0	0	0	1	5062.55	0.0264609	0.0260423	-0.270775	2	0.00944825	-7.0516e-06
2	0	0	0	1	5067.17	0.0172227	0.0168391	-0.271086	2	0.00818792	-4.56485e-06
2	0	0	1	1	5071.79	0.00798447	0.00761475	-0.27143	2	0.00692674	-2.06687e-06
2	1	0	0	0	5075.72	0.000131913	-0.000115941	-0.272054	2	0.00585269	3.15423e-08
2	1	0	1	0	5079.64	0.00798434	0.00756051	-0.1239	3	0.00515979	-9.3675e-07
2	1	0	0	0	5084.34	0.0173766	0.0169892	-0.0565127	3	0.00476583	-9.60103e-07
2	1	0	0	0	5089.04	0.026769	0.0264115	-0.017488	3	0.00460868	-4.61886e-07
2	1	0	1	0	5094.43	0.0375469	0.0371498	0.0126909	3	0.00461164	4.71464e-07
2	1	0	0	0	5099.04	0.046785	0.0464483	0.0315414	3	0.00472541	1.46504e-06
2	1	0	0	0	5103.66	0.0560233	0.0556547	0.046438	3	0.00491677	2.5845e-06
2	1	0	0	0	5108.28	0.0652615	0.064844	0.0590807	3	0.00517097	3.83103e-06
2	1	0	1	0	5112.9	0.0744997	0.0740864	0.0698126	3	0.00547832	5.17216e-06
2	1	0	1	0	5117.52	0.0837381	0.0833257	0.0787523	3	0.00583149	6.56209e-06
2	1	0	1	0	5122.14	0.0929763	0.0925755	0.0865777	3	0.00622317	8.01498e-06
2	1	0	0	0	5126.76	0.102215	0.101824	0.093572	3	0.00664844	9.5279e-06
2	1	0	0	0	5131.53	0.111761	0.111367	0.100019	3	0.00712017	1.11388e-05
2	1	0	1	0	5136.15	0.120999	0.120647	0.105989	3	0.00760584	1.27872e-05
2	1	0	1	0	5140.77	0.130237	0.129872	0.111282	3	0.00811658	1.44524e-05
2	1	0	1	0	5145.39	0.139475	0.139056	0.116093	3	0.00865003	1.61435e-05
2	1	0	0	0	5150.01	0.148714	0.148306	0.120661	3	0.00920563	1.78948e-05
2	1	0	0	0	5154.63	0.157952	0.157574	0.125267	3	0.00978321	1.97388e-05
2	1	0	0	0	5159.25	0.16719	0.166804	0.129253	3	0.0103802	2.156e-05
2	1	0	1	0	5163.87	0.176428	0.176005	0.132949	3	0.0109951	2.33997e-05
2	1	0	1	0	5168.49	0.185667	0.185265	0.136935	3	0.0116281	2.53692e-05
2	1	0	1	0	5173.1	0.194905	0.194508	0.140947	3	0.0122792	2.74154e-05
2	1	0	0	0	5177.72	0.204143	0.203721	0.144464	3	0.0129478	2.94304e-05
2	1	0	0	0	5182.34	0.213382	0.212978	0.147789	3	0.0136324	3.14759e-05
2	1	0	1	0	5186.96	0.22262	0.222202	0.151544	3	0.014333	3.36733e-05
2	1	0	1	0	5191.58	0.231858	0.231493	0.155282	3	0.0150503	3.59467e-05
2	1	0	1	0	5196.2	0.241096	0.240668	0.158539	3	0.0157843	3.81553e-05
2	1	0	0	0	5200.82	0.250334	0.249931	0.161852	3	0.0165334	4.04518e-05
2	1	0	0	0	5205.44	0.259573	0.25916	0.165195	3	0.0172975	4.28119e-05
2	1	0	0	0	5210.06	0.268811	0.26841	0.168597	3	0.0180775	4.52532e-05
2	1	0	1	0	5214.68	0.278049	0.277654	0.172073	3	0.0188737	4.77769e-05
2	1	0	1	0	5219.3	0.287288	0.286887	0.175332	3	0.0196845	5.03004e-05
2	1	0	1	0	5223.91	0.296526	0.296145	0.178401	3	0.0205098	5.28327e-05
2	1	0	0	0	5228.53	0.305764	0.305349	0.181607	3	0.0213502	5.54537e-05
2	1	0	0	0	5233.15	0.315002	0.314581	0.184809	3	0.0222056	5.81373e-05
2	1	0	0	0	5237.77	0.324241	0.323763	0.187945	3	0.0230759	6.08498e-05
2	1	0	1	0	5242.39	0.333479	0.333003	0.190917	3	0.0239606	6.35759e-05
2	1	0	1	0	5247.01	0.342717	0.342264	0.194301	3	0.0248599	6.65024e-05
2	1	0	0	0	5251.63	0.351955	0.351487	0.197888	3	0.0257747	6.95551e-05
2	1	0	0	0	5256.25	0.361194	0.360702	0.201031	3	0.0267053	7.25123e-05
2	1	0	0	0	5260.87	0.370432	0.37003	0.204197	3	0.0276508	7.55593e-05
2	1	0	1	0	5265.49	0.37967	0.379287	0.207726	3	0.0286114	7.87878e-05
2	1	0	1	0	5270.11	0.388908	0.388464	0.211561	3	0.029589	8.21841e-05
2	1	0	1	0	5274.72	0.398147	0.397707	0.215368	3	0.0305847	8.56531e-05
2	1	0	0	0	5279.34	0.407385	0.406964	0.219235	3	0.0315977	8.92208e-05
2	1	0	0	0	5283.96	0.416623	0.416123	0.223348	3	0.0326285	9.29404e-05
2	1	0	1	0	5288.58	0.425861	0.425442	0.227793	3	0.0336794	9.69126e-05
2	1	0	1	0	5293.2	0.4351	0.43469	0.232662	3	0.0347519	0.000101136
2	1	0	1	0	5297.82	0.444338	0.443901	0.237278	3	0.0358458	0.000105328
2	1	0	0	0	5302.44	0.453576	0.453145	0.242078	3	0.0369616	0.000109696
2	1	0	0	0	5307.06	0.462814	0.462352	0.247359	3	0.0381013	0.000114367
2	1	0	0	0	5311.68	0.472053	0.471647	0.253245	3	0.0392673	0.000119442
2	1	0	1	0	5316.3	0.481291	0.48089	0.258697	3	0.0404594	0.000124405
2	1	0	1	0	5320.92	0.490529	0.49009	0.264366	3	0.0416774	0.000129563
2	1	0	1	0	5325.54	0.499767	0.49931	0.270672	3	0.042923	0.000135149
2	1	0	0	0	5330.15	0.509005	0.508569	0.277387	3	0.0441978	0.00014107
2	1	0	0	0	5334.77	0.518244	0.517828	0.283683	3	0.0455031	0.000146899
2	1	0	0	0	5339.39	0.527482	0.52706	0.29015	3	0.0468382	0.000152927
2	1	0	1	0	5344.01	0.53672	0.536259	0.296959	3	0.0482035	0.000159247
2	1	0	1	0	5348.63	0.545959	0.54556	0.303972	3	0.0496012	0.000165835
2	1	0	0	0	5353.25	0.555197	0.55475	0.311266	3	0.0510323	0.000172675
2	1	0	0	0	5357.87	0.564435	0.564026	0.31835	3	0.0524955	0.000179558
2	1	0	0	0	5362.49	0.573673	0.573168	0.325504	3	0.0539913	0.000186569
2	1	0	1	0	5367.11	0.582912	0.582462	0.333076	3	0.0555213	0.000194004
2	1	0	1	0	5371.73	0.59215	0.591761	0.340818	3	0.0570872	0.000201683
2	1	0	1	0	5376.35	0.601388	0.600938	0.348227	3	0.0586879	0.000209263
2	1	0	0	0	5380.96	0.610626	0.610159	0.355577	3	0.0603229	0.000216959
2	1	0	0	0	5385.58	0.619865	0.619427	0.363214	3	0.0619931	0.000224985
2	1	0	0	0	5390.2	0.629103	0.628666	0.37154	3	0.0637001	0.000233575
2	1	0	1	0	5394.82	0.638341	0.637927	0.378881	3	0.0654432	0.000241699
2	1	0	1	0	5399.44	0.647579	0.647139	0.386011	3	0.0672202	0.000249803
2	1	0	1	0	5404.06	0.656818	0.656361	0.393381	3	0.0690303	0.0002582
2	1	0	0	0	5408.68	0.666056	0.665627	0.400848	3	0.070874	0.000266815
2	1	0	0	0	5413.3	0.675294	0.674886	0.407594	3	0.0727512	0.000275079
2	1	0	1	0	5417.92	0.684532	0.684103	0.414224	3	0.0746592	0.000283371
2	1	0	1	0	5422.54	0.693771	0.693325	0.420824	3	0.0765974	0.000291768
2	1	0	1	0	5427.16	0.703009	0.70253	0.427641	3	0.0785667	0.000300431
2	1	0	0	0	5431.78	0.712247	0.71187	0.434682	3	0.0805686	0.000309437
2	1	0	0	0	5436.39	0.721485	0.721086	0.4416	3	0.0826017	0.000318432
2	1	0	0	0	5441.01	0.730724	0.730218	0.448722	3	0.0846665	0.000327665
2	1	0	1	0	5445.63	0.739962	0.739587	0.456375	3	0.086766	0.000337529
2	1	0	1	0	5450.25	0.7492	0.748816	0.464785	3	0.0889032	0.000348038
2	1	0	1	0	5454.87	0.758438	0.758037	0.473265	3	0.0910794	0.000358752
2	1	0	0	0	5459.49	0.767677	0.767246	0.482315	3	0.0932965	0.000370054
2	1	0	0	0	5464.11	0.776915	0.776503	0.492488	3	0.0955584	0.000382419
2	1	0	1	0	5468.73	0.786153	0.785759	0.504043	3	0.0978699	0.000396056
2	1	0	1	0	5473.35	0.795391	0.794986	0.515199	3	0.100234	0.000409576
2	0	0	0	0	5476.43	0.798163	0.797763	0.459686	3	0.101789	0.00036672
2	0	0	0	0	5481.05	0.788925	0.788505	0.271759	3	0.103408	0.000214283
2	0	0	0	0	5485.67	0.779686	0.779279	0.167503	3	0.104393	0.000130532
2	0	0	1	0	5490.28	0.770448	0.769973	0.0957817	3	0.104981	7.37493e-05
2	0	0	1	0	5495.06	0.760902	0.760522	0.0400483	3	0.105286	3.04576e-05
2	0	0	0	0	5499.98	0.751048	0.750672	-0.0055828	3	0.105353	-4.19085e-06
2	0	0	1	0	5504.91	0.741194	0.740753	-0.0428722	3	0.10522	-3.17577e-05
2	0	0	1	0	5509.53	0.731955	0.731555	-0.0714453	3	0.104944	-5.22662e-05
2	0	0	1	0	5514.23	0.722563	0.72222	-0.0959005	3	0.104538	-6.92612e-05
2	0	0	0	0	5518.92	0.713171	0.712785	-0.117277	3	0.104025	-8.35931e-05
2	0	0	0	0	5523.54	0.703933	0.703462	-0.135669	3	0.10343	-9.54378e-05
2	0	0	1	0	5528.16	0.694694	0.694241	-0.151135	3	0.102757	-0.000104924
2	0	0	1	0	5532.78	0.685456	0.685043	-0.164598	3	0.102017	-0.000112757
2	0	0	1	0	5537.4	0.676218	0.675821	-0.176663	3	0.101218	-0.000119393
2	0	0	0	0	5542.02	0.66698	0.666552	-0.187421	3	0.100367	-0.000124926
2	0	0	0	0	5546.64	0.657741	0.657332	-0.197211	3	0.0994679	-0.000129633
2	0	0	0	0	5551.26	0.648503	0.64807	-0.205756	3	0.0985275	-0.000133344
2	0	0	1	0	5555.88	0.639265	0.638838	-0.2133	3	0.0975506	-0.000136264
2	0	0	1	0	5560.5	0.630027	0.629635	-0.220186	3	0.0965401	-0.000138637
2	0	0	1	0	5565.11	0.620788	0.620341	-0.226817	3	0.0954975	-0.000140704
2	0	0	0	0	5569.73	0.61155	0.611144	-0.232154	3	0.094428	-0.00014188
2	0	0	0	0	5574.35	0.602312	0.60192	-0.236818	3	0.0933351	-0.000142545
2	0	0	0	0	5578.97	0.593074	0.592656	-0.241461	3	0.0922204	-0.000143103
2	0	0	1	0	5583.59	0.583835	0.583439	-0.245883	3	0.0910848	-0.000143458
2	0	0	1	0	5588.21	0.574597	0.574153	-0.249551	3	0.0899308	-0.000143281
2	0	0	0	0	5592.83	0.565359	0.564965	-0.252549	3	0.088761	-0.000142681
2	0	0	0	0	5597.45	0.556121	0.555697	-0.255797	3	0.0875772	-0.000142145
2	0	0	0	0	5602.07	0.546883	0.546449	-0.258824	3	0.0863796	-0.000141434
2	0	0	1	0	5606.69	0.537644	0.537234	-0.261226	3	0.0851688	-0.00014034
2	0	0	1	0	5611.31	0.528406	0.527961	-0.263269	3	0.083948	-0.000138996
2	0	0	1	0	5615.92	0.519168	0.518745	-0.265157	3	0.0827186	-0.000137549
2	0	0	0	0	5620.54	0.509929	0.509525	-0.266867	3	0.0814806	-0.000135976
2	0	0	0	0	5625.16	0.500691	0.500242	-0.268292	3	0.0802348	-0.000134211
2	0	0	0	0	5629.78	0.491453	0.491011	-0.269033	3	0.0789849	-0.000132098
2	0	0	1	0	5634.4	0.482215	0.481827	-0.268939	3	0.077734	-0.000129582
2	0	0	1	0	5639.02	0.472976	0.472537	-0.268433	3	0.0764838	-0.000126845
2	0	0	0	0	5643.64	0.463738	0.463307	-0.26764	3	0.0752363	-0.000123999
2	0	0	0	0	5648.26	0.4545	0.454044	-0.265871	3	0.0739949	-0.000120717
2	0	0	0	0	5652.88	0.445262	0.444811	-0.263878	3	0.0727619	-0.000117376
2	0	0	1	0	5657.5	0.436023	0.435602	-0.262224	3	0.0715373	-0.000114225
2	0	0	1	0	5662.12	0.426785	0.426359	-0.260957	3	0.0703199	-0.000111261
2	0	0	1	0	5666.74	0.417547	0.417108	-0.259389	3	0.0691091	-0.000108193
2	0	0	0	0	5671.35	0.408309	0.407859	-0.258041	3	0.0679046	-0.000105244
2	0	0	0	0	5675.97	0.39907	0.398646	-0.257454	3	0.066705	-0.000102633
2	0	0	1	0	5680.59	0.389832	0.389432	-0.257318	3	0.0655075	-0.000100208
2	0	0	1	0	5685.21	0.380594	0.380167	-0.257429	3	0.0643092	-9.7866e-05
2	0	0	1	0	5689.83	0.371356	0.370878	-0.258014	3	0.0631098	-9.56917e-05
2	0	0	0	0	5694.45	0.362117	0.361738	-0.258923	3	0.0619074	-9.36621e-05
2	0	0	0	0	5699.07	0.352879	0.352411	-0.260427	3	0.0606991	-9.17775e-05
2	0	0	0	0	5703.69	0.343641	0.343169	-0.262344	3	0.0594826	-9.00282e-05
2	0	0	1	0	5708.31	0.334403	0.334009	-0.264117	3	0.0582583	-8.82176e-05
2	0	0	1	0	5712.93	0.325164	0.324752	-0.265972	3	0.0570255	-8.63749e-05
2	0	0	1	0	5717.55	0.315926	0.315504	-0.268139	3	0.055783	-8.45989e-05
2	0	0	0	0	5722.16	0.306688	0.306266	-0.27028	3	0.0545302	-8.27777e-05
2	0	0	0	0	5726.78	0.29745	0.297055	-0.272249	3	0.0532676	-8.08731e-05
2	0	0	0	0	5731.4	0.288211	0.287836	-0.273968	3	0.0519965	-7.88581e-05
2	0	0	1	0	5736.02	0.278973	0.278545	-0.275883	3	0.050717	-7.6846e-05
2	0	0	1	0	5740.64	0.269735	0.269358	-0.277793	3	0.0494293	-7.48258e-05
2	0	0	0	0	5745.26	0.260497	0.260109	-0.278905	3	0.0481345	-7.25457e-05
2	0	0	0	0	5749.88	0.251258	0.250913	-0.279721	3	0.0468349	-7.01858e-05
2	0	0	0	0	5754.5	0.24202	0.241595	-0.28062	3	0.0455316	-6.77964e-05
2	0	0	1	0	5759.12	0.232782	0.232438	-0.281314	3	0.0442247	-6.53881e-05
2	0	0	1	0	5763.74	0.223544	0.22316	-0.281664	3	0.0429148	-6.2856e-05
2	0	0	1	0	5768.36	0.214305	0.213878	-0.281744	3	0.0416044	-6.02588e-05
2	0	0	0	0	5772.98	0.205067	0.204708	-0.281571	3	0.040295	-5.76398e-05
2	0	0	0	0	5777.59	0.195829	0.195441	-0.281424	3	0.0389861	-5.50018e-05
2	0	0	0	0	5782.21	0.186591	0.186201	-0.281104	3	0.037678	-5.23418e-05
2	0	0	1	0	5786.83	0.177352	0.17695	-0.280425	3	0.0363725	-4.96212e-05
2	0	0	1	0	5791.45	0.168114	0.167714	-0.279504	3	0.0350707	-4.68767e-05
2	0	0	0	0	5796.07	0.158876	0.158534	-0.278747	3	0.0337723	-4.41908e-05
2	0	0	0	0	5800.69	0.149638	0.149237	-0.278245	3	0.0324765	-4.15245e-05
2	0	0	0	0	5805.31	0.140399	0.139971	-0.27718	3	0.0311844	-3.8797e-05
2	0	0	1	0	5809.93	0.131161	0.130803	-0.276058	3	0.0298971	-3.61093e-05
2	0	0	1	0	5814.55	0.121923	0.121502	-0.2754	3	0.0286143	-3.34616e-05
2	0	0	1	0	5819.17	0.112685	0.112326	-0.274892	3	0.0273347	-3.08775e-05
2	0	0	0	0	5823.79	0.103446	0.103039	-0.273949	3	0.0260581	-2.82274e-05
2	0	0	0	0	5828.4	0.094208	0.0937753	-0.273126	3	0.0247853	-2.56125e-05
2	0	0	0	0	5833.02	0.0849698	0.0845871	-0.272521	3	0.0235162	-2.30517e-05
2	0	0	1	0	5837.64	0.0757316	0.0753563	-0.272027	3	0.0222496	-2.0499e-05
2	0	0	1	0	5842.26	0.0664933	0.066064	-0.271822	3	0.0209839	-1.79576e-05
2	0	0	0	0	5846.88	0.0572552	0.0568218	-0.2715	3	0.0197204	-1.54271e-05
2	0	0	0	0	5851.5	0.0480168	0.0476142	-0.271233	3	0.0184589	-1.29146e-05
2	0	0	0	0	5856.12	0.0387786	0.038409	-0.271181	3	0.0171978	-1.04158e-05
2	0	0	1	0	5860.74	0.0295404	0.0291624	-0.271396	3	0.0159358	-7.91454e-06
2	0	0	1	0	5865.36	0.0203021	0.0199039	-0.271371	3	0.0146736	-5.40136e-06
2	0	0	1	0	5869.98	0.0110639	0.0106871	-0.27139	3	0.0134112	-2.90037e-06
2	0	0	0	0	5874.6	0.00182564	0.00147224	-0.27183	3	0.0121473	-4.002e-07
2	0	0	0	0	5875.43	0.000131913	-0.000364188	-0.272483	3	0.0119184	9.92352e-08