File: Input_data/[1] JJ1-53 1st SC total meas_05_CP.mpt
EC-Lab ASCII FILE
Nb header lines : 52

Chronopotentiometry

Run on channel : 1 (SN 31418)
User :
CE vs. WE compliance from -10 V to 10 V
Electrode connection : standard
Ewe ctrl range : min = -10.00 V, max = 10.00 V
Safety Limits :
	Do not start on E overload
Acquisition started on : 01/25/2023 15:21:28
Technique started on : 01/25/2023 15:48:59
Saved on :
	File : [1] JJ1-53 1st SC total meas_05_CP.mpr
	Directory : C:\Users\Potentiostat\Documents\EC-Lab\Data\Supercapacitor until 2021 02\(230125) SC JJ1-53 54 lower CB better viscosity\
	Host : 127.0.0.1
Device : SP-150 (SN 1275)
Address : USB
EC-Lab for windows v11.16 (software)
Internet server v11.16 (firmware)
Command interpretor v11.16 (firmware)
Electrode material : Au/Pd
Initial state :
Electrolyte : NaCl (0.2M)
Comments : Fe(CN)63-/Fe(CN)64- 5.10-3 M
Reference electrode : SCE Saturated Calomel Electrode (0.241 V)
Electrode surface area : 0.001 cm²
Characteristic mass : 0.001 g
Equivalent Weight : 0.000 g/eq.
Density : 0.000 g/cm3
Cycle Definition : Charge/Discharge alternance
Ns                  0                   1
Is                  1.000               -1.000
unit Is             mA                  mA
vs.                 <None>              <None>
ts (h:m:s)          24:00:0.0000        24:00:0.0000
EM (V)              0.800               0.000
dQM                 24.000              24.000
unit dQM            mA.h                mA.h
record              Ewe                 Ewe
dEs (mV)            1.00                1.00
dts (s)             1.0000              1.0000
E range min (V)     -10.000             -10.000
E range max (V)     10.000              10.000
I Range             10 mA               10 mA
Bandwidth           5                   5
goto Ns'            0                   0
nc cycles           0                   5

mode	ox/red	error	control changes	Ns changes	counter inc.	Ns	time/s	control/mA	Ewe/V	I/mA	dQ/C	(Q-Qo)/C	half cycle	Q charge/discharge/mA.h	Energy charge/W.h	Energy discharge/W.h	Capacitance charge/µF	Capacitance discharge/µF	Q discharge/mA.h	Q charge/mA.h	Capacity/mA.h	Efficiency/%	cycle number	P/W
1	1	0	0	0	0	0	1651.07	1	0.120265	0.98936	0.0000000E+000	0.0000000E+000	0	0.000000000000000E+000	0.000000000000000E+000	0.000000000000000E+000	0.000000000000000E+000	0.000000000000000E+000	0.000000000000000E+000	0.000000000000000E+000	0.000000000000000E+000	0	0.000000000000000E+000	0.000118985
1	1	0	0	0	0	0	1651.27	1	0.156165	0.998725	0.000196812	0.000196812	0	5.46701e-05	7.97113e-09	0.000000000000000E+000	5876.05	0.000000000000000E+000	0.000000000000000E+000	5.46701e-05	5.46701e-05	0	0.000000000000000E+000	0.000155966
1	1	0	0	0	0	0	1651.83	1	0.190557	0.999108	0.000757665	0.000757665	0	0.000210462	3.53051e-08	0.000000000000000E+000	11160.9	0.000000000000000E+000	0.000000000000000E+000	0.000210462	0.000210462	0	0.000000000000000E+000	0.000190387
1	1	0	0	0	0	0	1652.68	1	0.225216	0.999171	0.00160703	0.00160703	0	0.000446396	8.46809e-08	0.000000000000000E+000	15671.5	0.000000000000000E+000	0.000000000000000E+000	0.000446396	0.000446396	0	0.000000000000000E+000	0.000225029
1	1	0	0	0	0	0	1653.77	1	0.259436	0.998598	0.00269636	0.00269636	0	0.000748988	1.58361e-07	0.000000000000000E+000	19715.3	0.000000000000000E+000	0.000000000000000E+000	0.000748988	0.000748988	0	0.000000000000000E+000	0.000259072
1	1	0	0	0	0	0	1655.08	1	0.293388	0.999617	0.00400626	0.00400626	0	0.00111285	2.59322e-07	0.000000000000000E+000	23467.2	0.000000000000000E+000	0.000000000000000E+000	0.00111285	0.00111285	0	0.000000000000000E+000	0.000293276
1	1	0	0	0	0	0	1656.65	1	0.32778	0.998662	0.00557213	0.00557213	0	0.00154781	3.94848e-07	0.000000000000000E+000	27166.7	0.000000000000000E+000	0.000000000000000E+000	0.00154781	0.00154781	0	0.000000000000000E+000	0.000327341
1	1	0	0	0	0	0	1658.44	1	0.361942	0.999299	0.00736159	0.00736159	0	0.00204489	5.66727e-07	0.000000000000000E+000	30766.7	0.000000000000000E+000	0.000000000000000E+000	0.00204489	0.00204489	0	0.000000000000000E+000	0.000361689
1	1	0	0	0	0	0	1660.47	1	0.396067	0.999426	0.00938408	0.00938408	0	0.00260669	7.80152e-07	0.000000000000000E+000	34324.1	0.000000000000000E+000	0.000000000000000E+000	0.00260669	0.00260669	0	0.000000000000000E+000	0.000395839
1	1	0	0	0	0	0	1662.74	1	0.430306	0.998662	0.0116534	0.0116534	0	0.00323705	1.04113e-06	0.000000000000000E+000	37880.5	0.000000000000000E+000	0.000000000000000E+000	0.00323705	0.00323705	0	0.000000000000000E+000	0.00042973
1	1	0	0	0	0	0	1665.27	1	0.464545	0.998853	0.0141873	0.0141873	0	0.00394091	1.35664e-06	0.000000000000000E+000	41498.6	0.000000000000000E+000	0.000000000000000E+000	0.00394091	0.00394091	0	0.000000000000000E+000	0.000464012
1	1	0	0	0	0	0	1668.09	1	0.498726	0.998916	0.0169955	0.0169955	0	0.00472097	1.73301e-06	0.000000000000000E+000	45194.1	0.000000000000000E+000	0.000000000000000E+000	0.00472097	0.00472097	0	0.000000000000000E+000	0.000498186
1	1	0	0	0	0	0	1671.21	1	0.532984	0.99949	0.0201123	0.0201123	0	0.00558676	2.18038e-06	0.000000000000000E+000	49017	0.000000000000000E+000	0.000000000000000E+000	0.00558676	0.00558676	0	0.000000000000000E+000	0.000532713
1	1	0	0	0	0	0	1674.68	1	0.567281	0.999108	0.0235797	0.0235797	0	0.00654991	2.71107e-06	0.000000000000000E+000	53034.6	0.000000000000000E+000	0.000000000000000E+000	0.00654991	0.00654991	0	0.000000000000000E+000	0.000566774
1	1	0	0	0	0	0	1678.48	1	0.601271	0.999362	0.0273827	0.0273827	0	0.0076063	3.32917e-06	0.000000000000000E+000	57214.1	0.000000000000000E+000	0.000000000000000E+000	0.0076063	0.0076063	0	0.000000000000000E+000	0.000600888
1	1	0	0	0	0	0	1682.77	1	0.635472	0.999235	0.0316642	0.0316642	0	0.00879562	4.0656e-06	0.000000000000000E+000	61747.6	0.000000000000000E+000	0.000000000000000E+000	0.00879562	0.00879562	0	0.000000000000000E+000	0.000634986
1	1	0	0	0	0	0	1687.53	1	0.669501	1.00013	0.0364205	0.0364205	0	0.0101168	4.92879e-06	0.000000000000000E+000	66603	0.000000000000000E+000	0.000000000000000E+000	0.0101168	0.0101168	0	0.000000000000000E+000	0.000669586
1	1	0	0	0	0	0	1692.93	1	0.703606	0.999808	0.0418202	0.0418202	0	0.0116167	5.9599e-06	0.000000000000000E+000	71987.6	0.000000000000000E+000	0.000000000000000E+000	0.0116167	0.0116167	0	0.000000000000000E+000	0.000703471
1	1	0	0	0	0	0	1699.15	1	0.737597	0.998725	0.0480282	0.0480282	0	0.0133412	7.20416e-06	0.000000000000000E+000	78104	0.000000000000000E+000	0.000000000000000E+000	0.0133412	0.0133412	0	0.000000000000000E+000	0.000736657
1	1	0	0	0	0	0	1706.47	1	0.771798	0.999171	0.0553439	0.0553439	0	0.0153733	8.7398e-06	0.000000000000000E+000	85259.1	0.000000000000000E+000	0.000000000000000E+000	0.0153733	0.0153733	0	0.000000000000000E+000	0.000771158
1	0	0	1	0	0	1	1713.59	-1	0.736852	-1.0026	-9.98305e-07	0.0624512	1	-2.77327e-07	1.02931e-05	-2.05505e-10	92242.3	260.635	2.77327e-07	0.000000000000000E+000	2.77327e-07	0	0.000000000000000E+000	-0.000738769
1	0	0	1	0	0	1	1714.01	-1	0.701219	-1.00228	-0.000425766	0.0620264	1	-0.000118269	1.02931e-05	-8.40203e-08	92242.3	10785.1	0.000118269	0.000000000000000E+000	0.000118269	0	0.000000000000000E+000	-0.00070282
1	0	0	1	0	0	1	1715.48	-1	0.66677	-1.00298	-0.00189814	0.060554	1	-0.000527261	1.02931e-05	-3.6291e-07	92242.3	25676	0.000527261	0.000000000000000E+000	0.000527261	0	0.000000000000000E+000	-0.00066876
1	0	0	1	0	0	1	1717.52	-1	0.632741	-1.00203	-0.00394122	0.058511	1	-0.00109478	1.02931e-05	-7.31001e-07	92242.3	36507.7	0.00109478	0.000000000000000E+000	0.00109478	0	0.000000000000000E+000	-0.000634025
1	0	0	1	0	0	1	1719.96	-1	0.598732	-1.00254	-0.00639299	0.0560592	1	-0.00177583	1.02931e-05	-1.14972e-06	92242.3	45032	0.00177583	0.000000000000000E+000	0.00177583	0	0.000000000000000E+000	-0.000600251
1	0	0	1	0	0	1	1722.77	-1	0.564397	-1.00209	-0.00920404	0.0532481	1	-0.00255668	1.02931e-05	-1.60318e-06	92242.3	52206.7	0.00255668	0.000000000000000E+000	0.00255668	0	0.000000000000000E+000	-0.000565578
1	0	0	1	0	0	1	1725.81	-1	0.530254	-1.00171	-0.0122557	0.0501965	1	-0.00340436	1.02931e-05	-2.06653e-06	92242.3	58237.5	0.00340436	0.000000000000000E+000	0.00340436	0	0.000000000000000E+000	-0.00053116
1	0	0	1	0	0	1	1729.08	-1	0.496168	-1.00254	-0.015528	0.0469242	1	-0.00431334	1.02931e-05	-2.53247e-06	92242.3	63501.6	0.00431334	0.000000000000000E+000	0.00431334	0	0.000000000000000E+000	-0.000497427
1	0	0	1	0	0	1	1732.54	-1	0.461871	-1.00165	-0.0190022	0.04345	1	-0.00527839	1.02931e-05	-2.99415e-06	92242.3	68150.8	0.00527839	0.000000000000000E+000	0.00527839	0	0.000000000000000E+000	-0.000462631
1	0	0	1	0	0	1	1736.08	-1	0.427747	-1.00235	-0.0225438	0.0399084	1	-0.00626217	1.02931e-05	-3.43116e-06	92242.3	72036.4	0.00626217	0.000000000000000E+000	0.00626217	0	0.000000000000000E+000	-0.000428751
1	0	0	1	0	0	1	1739.63	-1	0.393699	-1.00254	-0.0261066	0.0363456	1	-0.00725184	1.02931e-05	-3.8371e-06	92242.3	75235.6	0.00725184	0.000000000000000E+000	0.00725184	0	0.000000000000000E+000	-0.000394698
1	0	0	1	0	0	1	1743.23	-1	0.359498	-1.00267	-0.0297115	0.0327406	1	-0.0082532	1.02931e-05	-4.21369e-06	92242.3	77942.3	0.0082532	0.000000000000000E+000	0.0082532	0	0.000000000000000E+000	-0.000360456
1	0	0	1	0	0	1	1746.78	-1	0.325546	-1.0019	-0.0332713	0.0291808	1	-0.00924204	1.02931e-05	-4.55189e-06	92242.3	80142.6	0.00924204	0.000000000000000E+000	0.00924204	0	0.000000000000000E+000	-0.000326164
1	0	0	1	0	0	1	1750.31	-1	0.291421	-1.00273	-0.0368066	0.0256456	1	-0.010224	1.02931e-05	-4.85437e-06	92242.3	81924.2	0.010224	0.000000000000000E+000	0.010224	0	0.000000000000000E+000	-0.000292217
1	0	0	1	0	0	1	1753.74	-1	0.257392	-1.00196	-0.0402481	0.0222041	1	-0.01118	1.02931e-05	-5.11627e-06	92242.3	83276.9	0.01118	0.000000000000000E+000	0.01118	0	0.000000000000000E+000	-0.000257898
1	0	0	1	0	0	1	1757.1	-1	0.223172	-1.00177	-0.0436116	0.0188406	1	-0.0121143	1.02931e-05	-5.34033e-06	92242.3	84269.6	0.0121143	0.000000000000000E+000	0.0121143	0	0.000000000000000E+000	-0.000223568
1	0	0	1	0	0	1	1760.4	-1	0.189048	-1.0026	-0.0469276	0.0155245	1	-0.0130355	1.02931e-05	-5.52968e-06	92242.3	85067.9	0.0130355	0.000000000000000E+000	0.0130355	0	0.000000000000000E+000	-0.00018954
1	0	0	1	0	0	1	1763.7	-1	0.154924	-1.00203	-0.0502292	0.0122229	1	-0.0139526	1.02931e-05	-5.68686e-06	92242.3	85748.6	0.0139526	0.000000000000000E+000	0.0139526	0	0.000000000000000E+000	-0.000155238
1	0	0	1	0	0	1	1767.02	-1	0.120761	-1.00298	-0.0535554	0.00889678	1	-0.0148765	1.02931e-05	-5.8137e-06	92242.3	86388.6	0.0148765	0.000000000000000E+000	0.0148765	0	0.000000000000000E+000	-0.000121121
1	0	0	1	0	0	1	1770.36	-1	0.0867895	-1.00203	-0.0569088	0.00554342	1	-0.015808	1.02931e-05	-5.90989e-06	92242.3	87028.7	0.015808	0.000000000000000E+000	0.015808	0	0.000000000000000E+000	-8.69655e-05
1	0	0	1	0	0	1	1773.74	-1	0.0529516	-1.00235	-0.0602964	0.00215573	1	-0.016749	1.02931e-05	-5.97514e-06	92242.3	87672.6	0.016749	0.000000000000000E+000	0.016749	0	0.000000000000000E+000	-5.30758e-05
1	0	0	1	0	0	1	1777.2	-1	0.0189609	-1.00177	-0.0637596	-0.0013074	1	-0.017711	1.02931e-05	-6.00921e-06	92242.3	88341.9	0.017711	0.000000000000000E+000	0.017711	0	0.000000000000000E+000	-1.89945e-05
1	1	0	0	0	1	0	1779.17	1	0.0766496	0.999617	1.01863e-05	-0.00326053	2	2.82954e-06	2.0546e-10	-7.55798e-14	705.265	0.000000000000000E+000	0.000000000000000E+000	2.82954e-06	2.82954e-06	0	1	7.66202e-05
1	1	0	0	0	1	0	1779.48	1	0.111156	0.999171	0.000322902	-0.00294781	2	8.96949e-05	8.86092e-09	-7.55798e-14	6595.82	0.000000000000000E+000	0.000000000000000E+000	8.96949e-05	8.96949e-05	0	1	0.000111064
1	1	0	0	0	1	0	1780.28	1	0.145548	0.998598	0.00112517	-0.00214554	2	0.000312547	3.78773e-08	-7.55798e-14	13499.7	0.000000000000000E+000	0.000000000000000E+000	0.000312547	0.000312547	0	1	0.000145344
1	1	0	0	0	1	0	1781.4	1	0.17971	0.999171	0.00223996	-0.00103076	2	0.00062221	8.86097e-08	-7.55798e-14	19061.8	0.000000000000000E+000	0.000000000000000E+000	0.00062221	0.00062221	0	1	0.000179561
1	1	0	0	0	1	0	1782.76	1	0.214064	0.999108	0.00359753	0.000326819	2	0.000999314	1.6321e-07	-7.55798e-14	23689.2	0.000000000000000E+000	0.000000000000000E+000	0.000999314	0.000999314	0	1	0.000213873
1	1	0	0	0	1	0	1784.34	1	0.248093	0.998916	0.00517913	0.00190841	2	0.00143865	2.65112e-07	-7.55798e-14	27860.8	0.000000000000000E+000	0.000000000000000E+000	0.00143865	0.00143865	0	1	0.000247824
1	1	0	0	0	1	0	1786.12	1	0.282293	0.998534	0.00695954	0.00368882	2	0.0019332	3.96703e-07	-7.55798e-14	31620.8	0.000000000000000E+000	0.000000000000000E+000	0.0019332	0.0019332	0	1	0.00028188
1	1	0	0	0	1	0	1788.1	1	0.31636	0.999171	0.00893297	0.00566226	2	0.00248138	5.61218e-07	-7.55798e-14	35147	0.000000000000000E+000	0.000000000000000E+000	0.00248138	0.00248138	0	1	0.000316098
1	1	0	0	0	1	0	1790.28	1	0.35058	0.998598	0.0111147	0.00784403	2	0.00308743	7.63787e-07	-7.55798e-14	38541.9	0.000000000000000E+000	0.000000000000000E+000	0.00308743	0.00308743	0	1	0.000350089
1	1	0	0	0	1	0	1792.66	1	0.384705	0.999362	0.0134862	0.0102154	2	0.00374615	1.00647e-06	-7.55798e-14	41816.9	0.000000000000000E+000	0.000000000000000E+000	0.00374615	0.00374615	0	1	0.000384459
1	1	0	0	0	1	0	1795.25	1	0.419096	0.999108	0.0160788	0.012808	2	0.00446632	1.29642e-06	-7.55798e-14	45051.6	0.000000000000000E+000	0.000000000000000E+000	0.00446632	0.00446632	0	1	0.000418722
1	1	0	0	0	1	0	1798.07	1	0.453355	0.999554	0.0188961	0.0156254	2	0.00524892	1.63838e-06	-7.55798e-14	48308.6	0.000000000000000E+000	0.000000000000000E+000	0.00524892	0.00524892	0	1	0.000453152
1	1	0	0	0	1	0	1801.13	1	0.48767	0.999426	0.0219501	0.0186794	2	0.00609724	2.03814e-06	-7.55798e-14	51590.2	0.000000000000000E+000	0.000000000000000E+000	0.00609724	0.00609724	0	1	0.00048739
1	1	0	0	0	1	0	1804.45	1	0.521775	0.999299	0.025271	0.0220003	2	0.00701973	2.50439e-06	-7.55798e-14	54987.8	0.000000000000000E+000	0.000000000000000E+000	0.00701973	0.00701973	0	1	0.000521409
1	1	0	0	0	1	0	1808.1	1	0.556033	0.998662	0.0289164	0.0256457	2	0.00803233	3.05085e-06	-7.55798e-14	58554.9	0.000000000000000E+000	0.000000000000000E+000	0.00803233	0.00803233	0	1	0.000555289
1	1	0	0	0	1	0	1812.08	1	0.590196	0.999362	0.032894	0.0296232	2	0.00913721	3.68496e-06	-7.55798e-14	62299.6	0.000000000000000E+000	0.000000000000000E+000	0.00913721	0.00913721	0	1	0.000589819
1	1	0	0	0	1	0	1816.43	1	0.624244	0.999299	0.0372388	0.033968	2	0.0103441	4.4187e-06	-7.55798e-14	66256	0.000000000000000E+000	0.000000000000000E+000	0.0103441	0.0103441	0	1	0.000623806
1	1	0	0	0	1	0	1821.26	1	0.658311	0.99949	0.0420603	0.0387895	2	0.0116834	5.27856e-06	-7.55798e-14	70557.8	0.000000000000000E+000	0.000000000000000E+000	0.0116834	0.0116834	0	1	0.000657975
1	1	0	0	0	1	0	1826.59	1	0.692378	0.999171	0.0473896	0.0441189	2	0.0131638	6.27956e-06	-7.55798e-14	75200.4	0.000000000000000E+000	0.000000000000000E+000	0.0131638	0.0131638	0	1	0.000691804
1	1	0	0	0	1	0	1832.51	1	0.726101	0.998725	0.0532989	0.0500282	2	0.0148052	7.44523e-06	-7.55798e-14	80281.3	0.000000000000000E+000	0.000000000000000E+000	0.0148052	0.0148052	0	1	0.000725176
1	1	0	0	0	1	0	1839.32	1	0.760378	0.999235	0.060112	0.0568413	2	0.0166978	8.85369e-06	-7.55798e-14	86098.4	0.000000000000000E+000	0.000000000000000E+000	0.0166978	0.0166978	0	1	0.000759797
1	1	0	0	0	1	0	1847.21	1	0.794293	0.999426	0.0679893	0.0647186	2	0.0188859	1.05567e-05	-7.55798e-14	92869.7	0.000000000000000E+000	0.000000000000000E+000	0.0188859	0.0188859	0	1	0.000793837
1	0	0	1	0	1	1	1848.82	-1	0.712429	-1.00241	-0.000149139	0.0660249	3	-4.14273e-05	1.08792e-05	-2.97774e-08	94136	5306.31	4.14273e-05	0.000000000000000E+000	4.14273e-05	0	1	-0.000714146
1	0	0	1	0	1	1	1849.98	-1	0.67798	-1.00228	-0.00131799	0.0648561	3	-0.000366109	1.08792e-05	-2.54534e-07	94136	21068.8	0.000366109	0.000000000000000E+000	0.000366109	0	1	-0.000679527
1	0	0	1	0	1	1	1851.87	-1	0.643588	-1.00273	-0.00320768	0.0629664	3	-0.000891023	1.08792e-05	-6.00684e-07	94136	33086.5	0.000891023	0.000000000000000E+000	0.000891023	0	1	-0.000645344
1	0	0	1	0	1	1	1854.19	-1	0.609349	-1.00254	-0.00553901	0.060635	3	-0.00153861	1.08792e-05	-1.00571e-06	94136	42222	0.00153861	0.000000000000000E+000	0.00153861	0	1	-0.000610895
1	0	0	1	0	1	1	1856.89	-1	0.574862	-1.0026	-0.0082387	0.0579354	3	-0.00228853	1.08792e-05	-1.44908e-06	94136	49728.1	0.00228853	0.000000000000000E+000	0.00228853	0	1	-0.000576357
1	0	0	1	0	1	1	1859.84	-1	0.540795	-1.00152	-0.0111989	0.0549752	3	-0.00311079	1.08792e-05	-1.90713e-06	94136	56066.6	0.00311079	0.000000000000000E+000	0.00311079	0	1	-0.000541616
1	0	0	1	0	1	1	1863.02	-1	0.506728	-1.00203	-0.0143904	0.0517837	3	-0.00399732	1.08792e-05	-2.37081e-06	94136	61547.5	0.00399732	0.000000000000000E+000	0.00399732	0	1	-0.000507755
1	0	0	1	0	1	1	1866.4	-1	0.47268	-1.00273	-0.0177746	0.0483995	3	-0.00493738	1.08792e-05	-2.83051e-06	94136	66358.4	0.00493738	0.000000000000000E+000	0.00493738	0	1	-0.000473969
1	0	0	1	0	1	1	1869.93	-1	0.438288	-1.00216	-0.0213167	0.0448573	3	-0.00592131	1.08792e-05	-3.27805e-06	94136	70527.1	0.00592131	0.000000000000000E+000	0.00592131	0	1	-0.000439233
1	0	0	1	0	1	1	1873.49	-1	0.404278	-1.00235	-0.0248758	0.0412983	3	-0.00690994	1.08792e-05	-3.694e-06	94136	73978.2	0.00690994	0.000000000000000E+000	0.00690994	0	1	-0.000405227
1	0	0	1	0	1	1	1877.06	-1	0.370249	-1.00254	-0.0284562	0.0377179	3	-0.00790449	1.08792e-05	-4.07861e-06	94136	76848.8	0.00790449	0.000000000000000E+000	0.00790449	0	1	-0.000371189
1	0	0	1	0	1	1	1880.66	-1	0.335896	-1.00247	-0.0320638	0.0341102	3	-0.00890662	1.08792e-05	-4.43186e-06	94136	79240.2	0.00890662	0.000000000000000E+000	0.00890662	0	1	-0.000336727
1	0	0	1	0	1	1	1884.17	-1	0.301943	-1.00216	-0.0355869	0.0305872	3	-0.00988524	1.08792e-05	-4.74345e-06	94136	81138.6	0.00988524	0.000000000000000E+000	0.00988524	0	1	-0.000302594
1	0	0	1	0	1	1	1887.62	-1	0.267857	-1.00171	-0.0390427	0.0271313	3	-0.0108452	1.08792e-05	-5.01648e-06	94136	82598.7	0.0108452	0.000000000000000E+000	0.0108452	0	1	-0.000268315
1	0	0	1	0	1	1	1890.97	-1	0.233885	-1.0026	-0.0423967	0.0237773	3	-0.0117769	1.08792e-05	-5.24978e-06	94136	83680.2	0.0117769	0.000000000000000E+000	0.0117769	0	1	-0.000234494
1	0	0	1	0	1	1	1894.27	-1	0.199646	-1.00254	-0.0457129	0.0204611	3	-0.012698	1.08792e-05	-5.44902e-06	94136	84514.2	0.012698	0.000000000000000E+000	0.012698	0	1	-0.000200153
1	0	0	1	0	1	1	1897.58	-1	0.165617	-1.00203	-0.0490221	0.017152	3	-0.0136172	1.08792e-05	-5.61646e-06	94136	85267.8	0.0136172	0.000000000000000E+000	0.0136172	0	1	-0.000165953
1	0	0	1	0	1	1	1900.88	-1	0.131608	-1.00184	-0.0523334	0.0138407	3	-0.0145371	1.08792e-05	-5.75265e-06	94136	85943.3	0.0145371	0.000000000000000E+000	0.0145371	0	1	-0.000131849
1	0	0	1	0	1	1	1904.24	-1	0.0973877	-1.00241	-0.055697	0.010477	3	-0.0154714	1.08792e-05	-5.85911e-06	94136	86600.5	0.0154714	0.000000000000000E+000	0.0154714	0	1	-9.76225e-05
1	0	0	1	0	1	1	1907.62	-1	0.0632634	-1.00286	-0.0590931	0.00708098	3	-0.0164147	1.08792e-05	-5.93439e-06	94136	87251.4	0.0164147	0.000000000000000E+000	0.0164147	0	1	-6.34441e-05
1	0	0	1	0	1	1	1911.08	-1	0.0291199	-1.00203	-0.0625551	0.00361892	3	-0.0173764	1.08792e-05	-5.97828e-06	94136	87930.4	0.0173764	0.000000000000000E+000	0.0173764	0	1	-2.91789e-05
1	1	0	0	0	0	0	1914.08	1	0.0643518	0.998853	5.94573e-07	0.00061404	4	1.65164e-07	1.05177e-11	-7.81988e-14	259.206	0.000000000000000E+000	0.000000000000000E+000	1.65164e-07	1.65164e-07	0	2	6.4278e-05
1	1	0	0	0	0	0	1914.24	1	0.100634	0.999235	0.000164247	0.000777692	4	4.56242e-05	4.16394e-09	-7.81988e-14	4255.81	0.000000000000000E+000	0.000000000000000E+000	4.56242e-05	4.56242e-05	0	2	0.000100557
1	1	0	0	0	0	0	1914.92	1	0.134968	0.999044	0.000837442	0.00145089	4	0.000232623	2.66527e-08	-7.81988e-14	11483	0.000000000000000E+000	0.000000000000000E+000	0.000232623	0.000232623	0	2	0.000134839
1	1	0	0	0	0	0	1915.95	1	0.169379	0.999617	0.00186692	0.00248036	4	0.000518589	7.0568e-08	-7.81988e-14	17392.6	0.000000000000000E+000	0.000000000000000E+000	0.000518589	0.000518589	0	2	0.000169314
1	1	0	0	0	0	0	1917.23	1	0.203618	0.999426	0.00315076	0.00376421	4	0.000875212	1.37455e-07	-7.81988e-14	22254.5	0.000000000000000E+000	0.000000000000000E+000	0.000875212	0.000875212	0	2	0.000203501
1	1	0	0	0	0	0	1918.74	1	0.2378	0.99847	0.004659	0.00527244	4	0.00129417	2.30318e-07	-7.81988e-14	26507.7	0.000000000000000E+000	0.000000000000000E+000	0.00129417	0.00129417	0	2	0.000237436
1	1	0	0	0	0	0	1920.45	1	0.271943	0.99949	0.00636668	0.00698013	4	0.00176852	3.51611e-07	-7.81988e-14	30331.4	0.000000000000000E+000	0.000000000000000E+000	0.00176852	0.00176852	0	2	0.000271805
1	1	0	0	0	0	0	1922.37	1	0.306221	0.998598	0.00828621	0.00889966	4	0.00230173	5.06147e-07	-7.81988e-14	33934.7	0.000000000000000E+000	0.000000000000000E+000	0.00230173	0.00230173	0	2	0.000305791
1	1	0	0	0	0	0	1924.49	1	0.34046	0.999808	0.0104054	0.0110188	4	0.00289038	6.96908e-07	-7.81988e-14	37372.9	0.000000000000000E+000	0.000000000000000E+000	0.00289038	0.00289038	0	2	0.000340394
1	1	0	0	0	0	0	1926.82	1	0.374813	0.998534	0.0127281	0.0133416	4	0.00353559	9.28135e-07	-7.81988e-14	40694.4	0.000000000000000E+000	0.000000000000000E+000	0.00353559	0.00353559	0	2	0.000374264
1	1	0	0	0	0	0	1929.34	1	0.408957	0.999171	0.0152456	0.0158591	4	0.0042349	1.2027e-06	-7.81988e-14	43946	0.000000000000000E+000	0.000000000000000E+000	0.0042349	0.0042349	0	2	0.000408618
1	1	0	0	0	0	0	1932.07	1	0.443234	1.00013	0.0179809	0.0185944	4	0.00499471	1.527e-06	-7.81988e-14	47170	0.000000000000000E+000	0.000000000000000E+000	0.00499471	0.00499471	0	2	0.00044329
1	1	0	0	0	0	0	1935.07	1	0.477587	0.999808	0.0209759	0.0215893	4	0.00582663	1.91065e-06	-7.81988e-14	50477.6	0.000000000000000E+000	0.000000000000000E+000	0.00582663	0.00582663	0	2	0.000477496
1	1	0	0	0	0	0	1938.3	1	0.511635	0.999108	0.0241987	0.0248122	4	0.00672187	2.35417e-06	-7.81988e-14	53823.3	0.000000000000000E+000	0.000000000000000E+000	0.00672187	0.00672187	0	2	0.000511179
1	1	0	0	0	0	0	1941.82	1	0.54576	0.999299	0.027713	0.0283265	4	0.00769806	2.87105e-06	-7.81988e-14	57291.4	0.000000000000000E+000	0.000000000000000E+000	0.00769806	0.00769806	0	2	0.000545377
1	1	0	0	0	0	0	1945.69	1	0.580037	0.999681	0.0315865	0.0321999	4	0.00877402	3.47754e-06	-7.81988e-14	60978.1	0.000000000000000E+000	0.000000000000000E+000	0.00877402	0.00877402	0	2	0.000579852
1	1	0	0	0	0	0	1949.93	1	0.614161	0.999044	0.0358236	0.036437	4	0.009951	4.18124e-06	-7.81988e-14	64883.5	0.000000000000000E+000	0.000000000000000E+000	0.009951	0.009951	0	2	0.000613574
1	1	0	0	0	0	0	1954.57	1	0.648133	0.999235	0.0404555	0.041069	4	0.0112376	4.99433e-06	-7.81988e-14	69025.7	0.000000000000000E+000	0.000000000000000E+000	0.0112376	0.0112376	0	2	0.000647637
1	1	0	0	0	0	0	1959.64	1	0.681932	0.999681	0.0455226	0.046136	4	0.0126452	5.93141e-06	-7.81988e-14	73436.2	0.000000000000000E+000	0.000000000000000E+000	0.0126452	0.0126452	0	2	0.000681715
1	1	0	0	0	0	0	1965.35	1	0.716019	0.999235	0.0512226	0.051836	4	0.0142285	7.03936e-06	-7.81988e-14	78324.5	0.000000000000000E+000	0.000000000000000E+000	0.0142285	0.0142285	0	2	0.000715471
1	1	0	0	0	0	0	1971.82	1	0.750315	0.999617	0.0576887	0.0583021	4	0.0160246	8.35788e-06	-7.81988e-14	83816.3	0.000000000000000E+000	0.000000000000000E+000	0.0160246	0.0160246	0	2	0.000750028
1	1	0	0	0	0	0	1979.17	1	0.784363	0.998853	0.0650369	0.0656503	4	0.0180658	9.92621e-06	-7.81988e-14	90038.4	0.000000000000000E+000	0.000000000000000E+000	0.0180658	0.0180658	0	2	0.000783463
1	0	0	1	0	0	1	1982.98	-1	0.722893	-1.0033	-3.28706e-05	0.0693847	5	-9.1311e-06	1.07559e-05	-6.63811e-09	93264.1	1863.39	9.1311e-06	0.000000000000000E+000	9.1311e-06	0	2	-0.00072528
1	0	0	1	0	0	1	1983.8	-1	0.688291	-1.00216	-0.000856351	0.0685612	5	-0.000237874	1.07559e-05	-1.66932e-07	93264.1	16391	0.000237874	0.000000000000000E+000	0.000237874	0	2	-0.000689775
1	0	0	1	0	0	1	1985.47	-1	0.654396	-1.00298	-0.00253337	0.0668842	5	-0.000703716	1.07559e-05	-4.78967e-07	93264.1	29409.8	0.000703716	0.000000000000000E+000	0.000703716	0	2	-0.000656349
1	0	0	1	0	0	1	1987.65	-1	0.620215	-1.00145	-0.00471858	0.064699	5	-0.00131072	1.07559e-05	-8.65151e-07	93264.1	39216.2	0.00131072	0.000000000000000E+000	0.00131072	0	2	-0.000621117
1	0	0	1	0	0	1	1990.19	-1	0.586224	-1.00196	-0.00726331	0.0621542	5	-0.00201759	1.07559e-05	-1.29091e-06	93264.1	47068.8	0.00201759	0.000000000000000E+000	0.00201759	0	2	-0.000587375
1	0	0	1	0	0	1	1993.03	-1	0.55229	-1.00292	-0.0101053	0.0593122	5	-0.00280703	1.07559e-05	-1.73967e-06	93264.1	53681.3	0.00280703	0.000000000000000E+000	0.00280703	0	2	-0.000553903
1	0	0	1	0	0	1	1996.11	-1	0.5183	-1.00241	-0.0131999	0.0562177	5	-0.00366663	1.07559e-05	-2.19916e-06	93264.1	59395.4	0.00366663	0.000000000000000E+000	0.00366663	0	2	-0.000519549
1	0	0	1	0	0	1	1999.4	-1	0.484443	-1.00203	-0.0164892	0.0529284	5	-0.00458032	1.07559e-05	-2.65661e-06	93264.1	64387.2	0.00458032	0.000000000000000E+000	0.00458032	0	2	-0.000485425
1	0	0	1	0	0	1	2002.84	-1	0.450414	-1.00228	-0.0199438	0.0494737	5	-0.00553994	1.07559e-05	-3.10457e-06	93264.1	68742.6	0.00553994	0.000000000000000E+000	0.00553994	0	2	-0.000451442
1	0	0	1	0	0	1	2006.38	-1	0.416404	-1.00216	-0.0234861	0.0459315	5	-0.00652391	1.07559e-05	-3.53053e-06	93264.1	72458.2	0.00652391	0.000000000000000E+000	0.00652391	0	2	-0.000417301
1	0	0	1	0	0	1	2009.93	-1	0.382318	-1.00292	-0.0270505	0.042367	5	-0.00751403	1.07559e-05	-3.92548e-06	93264.1	75513.9	0.00751403	0.000000000000000E+000	0.00751403	0	2	-0.000383434
1	0	0	1	0	0	1	2013.5	-1	0.348346	-1.00228	-0.0306203	0.0387972	5	-0.00850565	1.07559e-05	-4.28729e-06	93264.1	78075.2	0.00850565	0.000000000000000E+000	0.00850565	0	2	-0.000349141
1	0	0	1	0	0	1	2017.04	-1	0.314164	-1.00222	-0.0341741	0.0352435	5	-0.0094928	1.07559e-05	-4.6138e-06	93264.1	80150.8	0.0094928	0.000000000000000E+000	0.0094928	0	2	-0.000314862
1	0	0	1	0	0	1	2020.5	-1	0.280155	-1.00171	-0.0376396	0.0317779	5	-0.0104554	1.07559e-05	-4.89944e-06	93264.1	81757.4	0.0104554	0.000000000000000E+000	0.0104554	0	2	-0.000280634
1	0	0	1	0	0	1	2023.9	-1	0.245877	-1.00241	-0.0410508	0.0283667	5	-0.011403	1.07559e-05	-5.14823e-06	93264.1	82988.1	0.011403	0.000000000000000E+000	0.011403	0	2	-0.00024647
1	0	0	1	0	0	1	2027.2	-1	0.211944	-1.00171	-0.0443601	0.0250574	5	-0.0123223	1.07559e-05	-5.3582e-06	93264.1	83921.1	0.0123223	0.000000000000000E+000	0.0123223	0	2	-0.000212306
1	0	0	1	0	0	1	2030.5	-1	0.177839	-1.00241	-0.047668	0.0217495	5	-0.0132411	1.07559e-05	-5.53683e-06	93264.1	84713.3	0.0132411	0.000000000000000E+000	0.0132411	0	2	-0.000178267
1	0	0	1	0	0	1	2033.83	-1	0.143695	-1.00235	-0.0509974	0.0184201	5	-0.0141659	1.07559e-05	-5.68505e-06	93264.1	85445.5	0.0141659	0.000000000000000E+000	0.0141659	0	2	-0.000144033
1	0	0	1	0	0	1	2037.17	-1	0.109609	-1.00254	-0.054351	0.0150665	5	-0.0150975	1.07559e-05	-5.80251e-06	93264.1	86144.7	0.0150975	0.000000000000000E+000	0.0150975	0	2	-0.000109887
1	0	0	1	0	0	1	2040.53	-1	0.0756566	-1.0019	-0.0577131	0.0117044	5	-0.0160314	1.07559e-05	-5.88848e-06	93264.1	86802.3	0.0160314	0.000000000000000E+000	0.0160314	0	2	-7.58004e-05
1	0	0	1	0	0	1	2043.95	-1	0.0415895	-1.00279	-0.0611406	0.00827692	5	-0.0169835	1.07559e-05	-5.94377e-06	93264.1	87475.3	0.0169835	0.000000000000000E+000	0.0169835	0	2	-4.17057e-05
1	0	0	1	0	0	1	2047.45	-1	0.00740784	-1.00235	-0.0646532	0.00476439	5	-0.0179592	1.07559e-05	-5.96713e-06	93264.1	88188	0.0179592	0.000000000000000E+000	0.0179592	0	2	-7.42523e-06
1	1	0	0	0	1	0	2048.27	1	0.0873051	0.999235	4.57546e-05	0.00403398	6	1.27097e-05	1.02928e-09	-7.48536e-14	1760.82	0.000000000000000E+000	0.000000000000000E+000	1.27097e-05	1.27097e-05	0	3	8.72383e-05
1	1	0	0	0	1	0	2048.76	1	0.122041	0.99949	0.00052932	0.00451754	6	0.000147033	1.56086e-08	-7.48536e-14	8717.04	0.000000000000000E+000	0.000000000000000E+000	0.000147033	0.000147033	0	3	0.000121978
1	1	0	0	0	1	0	2049.67	1	0.156642	1.00019	0.0014435	0.00543172	6	0.000400973	5.13969e-08	-7.48536e-14	15143	0.000000000000000E+000	0.000000000000000E+000	0.000400973	0.000400973	0	3	0.000156672
1	1	0	0	0	1	0	2050.87	1	0.191072	0.998789	0.00264364	0.00663186	6	0.000734345	1.09735e-07	-7.48536e-14	20374.2	0.000000000000000E+000	0.000000000000000E+000	0.000734345	0.000734345	0	3	0.000190841
1	1	0	0	0	1	0	2052.28	1	0.225006	0.99949	0.00405279	0.00804101	6	0.00112577	1.91539e-07	-7.48536e-14	24759.2	0.000000000000000E+000	0.000000000000000E+000	0.00112577	0.00112577	0	3	0.000224891
1	1	0	0	0	1	0	2053.92	1	0.259283	0.999171	0.00568814	0.00967636	6	0.00158004	3.01928e-07	-7.48536e-14	28733	0.000000000000000E+000	0.000000000000000E+000	0.00158004	0.00158004	0	3	0.000259068
1	1	0	0	0	1	0	2055.77	1	0.293598	0.999235	0.00753427	0.0115225	6	0.00209285	4.44123e-07	-7.48536e-14	32436.1	0.000000000000000E+000	0.000000000000000E+000	0.00209285	0.00209285	0	3	0.000293374
1	1	0	0	0	1	0	2057.81	1	0.327913	0.999426	0.00957161	0.0135598	6	0.00265878	6.20447e-07	-7.48536e-14	35903.1	0.000000000000000E+000	0.000000000000000E+000	0.00265878	0.00265878	0	3	0.000327725
1	1	0	0	0	1	0	2060.07	1	0.362515	0.999108	0.0118344	0.0158227	6	0.00328734	8.37931e-07	-7.48536e-14	39291.3	0.000000000000000E+000	0.000000000000000E+000	0.00328734	0.00328734	0	3	0.000362192
1	1	0	0	0	1	0	2062.51	1	0.396678	0.99898	0.0142679	0.0182561	6	0.00396331	1.09503e-06	-7.48536e-14	42545	0.000000000000000E+000	0.000000000000000E+000	0.00396331	0.00396331	0	3	0.000396273
1	1	0	0	0	1	0	2065.17	1	0.431012	0.999108	0.0169341	0.0209224	6	0.00470393	1.40212e-06	-7.48536e-14	45805.7	0.000000000000000E+000	0.000000000000000E+000	0.00470393	0.00470393	0	3	0.000430628
1	1	0	0	0	1	0	2068.06	1	0.465366	0.999362	0.0198169	0.0238051	6	0.0055047	1.76166e-06	-7.48536e-14	49045.9	0.000000000000000E+000	0.000000000000000E+000	0.0055047	0.0055047	0	3	0.000465069
1	1	0	0	0	1	0	2071.21	1	0.499777	0.999426	0.0229623	0.0269505	6	0.00637842	2.18393e-06	-7.48536e-14	52370.5	0.000000000000000E+000	0.000000000000000E+000	0.00637842	0.00637842	0	3	0.00049949
1	1	0	0	0	1	0	2074.64	1	0.534092	0.999554	0.0263938	0.0303821	6	0.00733162	2.67738e-06	-7.48536e-14	55827.6	0.000000000000000E+000	0.000000000000000E+000	0.00733162	0.00733162	0	3	0.000533854
1	1	0	0	0	1	0	2078.35	1	0.567987	0.999171	0.0301026	0.0340908	6	0.00836183	3.24589e-06	-7.48536e-14	59412.7	0.000000000000000E+000	0.000000000000000E+000	0.00836183	0.00836183	0	3	0.000567516
1	1	0	0	0	1	0	2082.41	1	0.601902	0.998789	0.0341546	0.0381428	6	0.00948738	3.90519e-06	-7.48536e-14	63180.9	0.000000000000000E+000	0.000000000000000E+000	0.00948738	0.00948738	0	3	0.000601173
1	1	0	0	0	1	0	2086.89	1	0.635988	0.999617	0.0386334	0.0426216	6	0.0107315	4.67622e-06	-7.48536e-14	67227	0.000000000000000E+000	0.000000000000000E+000	0.0107315	0.0107315	0	3	0.000635744
1	1	0	0	0	1	0	2091.81	1	0.669978	0.999362	0.0435457	0.047534	6	0.012096	5.56835e-06	-7.48536e-14	71543.5	0.000000000000000E+000	0.000000000000000E+000	0.012096	0.012096	0	3	0.000669551
1	1	0	0	0	1	0	2097.27	1	0.70416	0.999299	0.0489962	0.0529845	6	0.0136101	6.60984e-06	-7.48536e-14	76218.1	0.000000000000000E+000	0.000000000000000E+000	0.0136101	0.0136101	0	3	0.000703666
1	1	0	0	0	1	0	2103.31	1	0.738074	0.999936	0.0550309	0.0590191	6	0.0152864	7.82004e-06	-7.48536e-14	81315.6	0.000000000000000E+000	0.000000000000000E+000	0.0152864	0.0152864	0	3	0.000738027
1	1	0	0	0	1	0	2110.22	1	0.772332	0.999044	0.0619366	0.0659248	6	0.0172046	9.27046e-06	-7.48536e-14	87110.1	0.000000000000000E+000	0.000000000000000E+000	0.0172046	0.0172046	0	3	0.000771594
1	0	0	1	0	1	1	2116.61	-1	0.735439	-1.00139	-1.59989e-06	0.0723134	7	-4.44965e-07	1.06673e-05	-3.28081e-10	92514.6	348.007	4.44965e-07	0.000000000000000E+000	4.44965e-07	0	3	-0.000736462
1	0	0	1	0	1	1	2117.04	-1	0.700303	-1.00165	-0.000429564	0.0718854	7	-0.000119325	1.06673e-05	-8.46988e-08	92514.6	10806.2	0.000119325	0.000000000000000E+000	0.000119325	0	3	-0.000701455
1	0	0	1	0	1	1	2118.47	-1	0.666331	-1.00267	-0.00186139	0.0704536	7	-0.000517054	1.06673e-05	-3.55683e-07	92514.6	25248	0.000517054	0.000000000000000E+000	0.000517054	0	3	-0.000668107
1	0	0	1	0	1	1	2120.5	-1	0.631901	-1.00241	-0.003898	0.068417	7	-0.00108278	1.06673e-05	-7.22233e-07	92514.6	36041.2	0.00108278	0.000000000000000E+000	0.00108278	0	3	-0.000633424
1	0	0	1	0	1	1	2122.94	-1	0.597624	-1.00254	-0.00633731	0.0659777	7	-0.00176037	1.06673e-05	-1.13813e-06	92514.6	44493.8	0.00176037	0.000000000000000E+000	0.00176037	0	3	-0.000599141
1	0	0	1	0	1	1	2125.69	-1	0.563328	-1.00254	-0.00909311	0.0632219	7	-0.00252586	1.06673e-05	-1.58186e-06	92514.6	51452.7	0.00252586	0.000000000000000E+000	0.00252586	0	3	-0.000564757
1	0	0	1	0	1	1	2128.69	-1	0.529318	-1.00222	-0.0121014	0.0602135	7	-0.00336151	1.06673e-05	-2.03781e-06	92514.6	57424.3	0.00336151	0.000000000000000E+000	0.00336151	0	3	-0.000530493
1	0	0	1	0	1	1	2131.92	-1	0.495155	-1.00247	-0.0153424	0.0569726	7	-0.00426177	1.06673e-05	-2.49837e-06	92514.6	62647.5	0.00426177	0.000000000000000E+000	0.00426177	0	3	-0.00049638
1	0	0	1	0	1	1	2135.37	-1	0.460802	-1.00235	-0.0187955	0.0535195	7	-0.00522097	1.06673e-05	-2.95621e-06	92514.6	67306.2	0.00522097	0.000000000000000E+000	0.00522097	0	3	-0.000461883
1	0	0	1	0	1	1	2138.87	-1	0.426792	-1.00209	-0.0223092	0.0500058	7	-0.00619699	1.06673e-05	-3.38877e-06	92514.6	71215.4	0.00619699	0.000000000000000E+000	0.00619699	0	3	-0.000427685
1	0	0	1	0	1	1	2142.42	-1	0.392725	-1.00267	-0.0258672	0.0464478	7	-0.00718534	1.06673e-05	-3.79322e-06	92514.6	74474.3	0.00718534	0.000000000000000E+000	0.00718534	0	3	-0.000393772
1	0	0	1	0	1	1	2146.02	-1	0.358161	-1.00228	-0.0294759	0.0428391	7	-0.00818774	1.06673e-05	-4.16901e-06	92514.6	77183.4	0.00818774	0.000000000000000E+000	0.00818774	0	3	-0.000358979
1	0	0	1	0	1	1	2149.57	-1	0.324037	-1.00273	-0.0330294	0.0392856	7	-0.00917484	1.06673e-05	-4.50521e-06	92514.6	79394.1	0.00917484	0.000000000000000E+000	0.00917484	0	3	-0.000324921
1	0	0	1	0	1	1	2153.02	-1	0.290123	-1.00209	-0.036493	0.035822	7	-0.010137	1.06673e-05	-4.80018e-06	92514.6	81107.7	0.010137	0.000000000000000E+000	0.010137	0	3	-0.00029073
1	0	0	1	0	1	1	2156.41	-1	0.256094	-1.00222	-0.0398867	0.0324283	7	-0.0110796	1.06673e-05	-5.05721e-06	92514.6	82417	0.0110796	0.000000000000000E+000	0.0110796	0	3	-0.000256662
1	0	0	1	0	1	1	2159.77	-1	0.22174	-1.00286	-0.0432501	0.0290649	7	-0.0120139	1.06673e-05	-5.28001e-06	92514.6	83443.7	0.0120139	0.000000000000000E+000	0.0120139	0	3	-0.000222374
1	0	0	1	0	1	1	2163.05	-1	0.187864	-1.00222	-0.046545	0.02577	7	-0.0129292	1.06673e-05	-5.46705e-06	92514.6	84291.4	0.0129292	0.000000000000000E+000	0.0129292	0	3	-0.000188281
1	0	0	1	0	1	1	2166.37	-1	0.153797	-1.00228	-0.049871	0.022444	7	-0.0138531	1.06673e-05	-5.62442e-06	92514.6	85066.6	0.0138531	0.000000000000000E+000	0.0138531	0	3	-0.000154148
1	0	0	1	0	1	1	2169.7	-1	0.119806	-1.00292	-0.053209	0.019106	7	-0.0147803	1.06673e-05	-5.75076e-06	92514.6	85786.4	0.0147803	0.000000000000000E+000	0.0147803	0	3	-0.000120156
1	0	0	1	0	1	1	2173.04	-1	0.0858729	-1.00241	-0.0565584	0.0157566	7	-0.0157107	1.06673e-05	-5.84594e-06	92514.6	86456.6	0.0157107	0.000000000000000E+000	0.0157107	0	3	-8.60799e-05
1	0	0	1	0	1	1	2176.48	-1	0.0515767	-1.00279	-0.0600029	0.0123121	7	-0.0166675	1.06673e-05	-5.91119e-06	92514.6	87152.9	0.0166675	0.000000000000000E+000	0.0166675	0	3	-5.17207e-05
1	0	0	1	0	1	1	2179.95	-1	0.0175096	-1.00133	-0.0634842	0.00883073	7	-0.0176345	1.06673e-05	-5.94404e-06	92514.6	87861.9	0.0176345	0.000000000000000E+000	0.0176345	0	3	-1.75328e-05
1	1	0	0	0	0	0	2181.79	1	0.0788456	0.99898	1.41822e-05	0.00702256	8	3.93949e-06	2.92202e-10	-7.52685e-14	836.157	0.000000000000000E+000	0.000000000000000E+000	3.93949e-06	3.93949e-06	0	4	7.87652e-05
1	1	0	0	0	0	0	2182.13	1	0.113428	0.998024	0.000357489	0.00736587	8	9.93024e-05	9.96791e-09	-7.52685e-14	6934.96	0.000000000000000E+000	0.000000000000000E+000	9.93024e-05	9.93024e-05	0	4	0.000113204
1	1	0	0	0	0	0	2182.95	1	0.147667	0.999554	0.00117217	0.00818055	8	0.000325602	3.99219e-08	-7.52685e-14	13663.5	0.000000000000000E+000	0.000000000000000E+000	0.000325602	0.000325602	0	4	0.000147601
1	1	0	0	0	0	0	2184.07	1	0.182097	0.99898	0.00229778	0.00930616	8	0.000638272	9.18499e-08	-7.52685e-14	19113.4	0.000000000000000E+000	0.000000000000000E+000	0.000638272	0.000638272	0	4	0.000181911
1	1	0	0	0	0	0	2185.44	1	0.21626	0.999426	0.00365995	0.0106683	8	0.00101665	1.6759e-07	-7.52685e-14	23707.3	0.000000000000000E+000	0.000000000000000E+000	0.00101665	0.00101665	0	4	0.000216136
1	1	0	0	0	0	0	2187.01	1	0.250594	0.998598	0.00523472	0.0122431	8	0.00145409	2.70076e-07	-7.52685e-14	27738.7	0.000000000000000E+000	0.000000000000000E+000	0.00145409	0.00145409	0	4	0.000250243
1	1	0	0	0	0	0	2188.82	1	0.285291	0.998916	0.00704523	0.0140536	8	0.00195701	4.05234e-07	-7.52685e-14	31534.7	0.000000000000000E+000	0.000000000000000E+000	0.00195701	0.00195701	0	4	0.000284982
1	1	0	0	0	0	0	2190.81	1	0.319511	0.99949	0.00902982	0.0160382	8	0.00250828	5.72396e-07	-7.52685e-14	35049.3	0.000000000000000E+000	0.000000000000000E+000	0.00250828	0.00250828	0	4	0.000319348
1	1	0	0	0	0	0	2193.01	1	0.354056	0.99949	0.0112247	0.018233	8	0.00311796	7.78218e-07	-7.52685e-14	38417.4	0.000000000000000E+000	0.000000000000000E+000	0.00311796	0.00311796	0	4	0.000353875
1	1	0	0	0	0	0	2195.38	1	0.388085	0.998789	0.0135949	0.0206033	8	0.00377637	1.02302e-06	-7.52685e-14	41676	0.000000000000000E+000	0.000000000000000E+000	0.00377637	0.00377637	0	4	0.000387615
1	1	0	0	0	0	0	2197.96	1	0.422133	0.998916	0.0161697	0.0231781	8	0.00449158	1.31329e-06	-7.52685e-14	44884.2	0.000000000000000E+000	0.000000000000000E+000	0.00449158	0.00449158	0	4	0.000421675
1	1	0	0	0	0	0	2200.76	1	0.456257	0.998216	0.0189699	0.0259783	8	0.00526943	1.6555e-06	-7.52685e-14	48100.9	0.000000000000000E+000	0.000000000000000E+000	0.00526943	0.00526943	0	4	0.000455443
1	1	0	0	0	0	0	2203.83	1	0.490572	0.999171	0.022039	0.0290474	8	0.00612195	2.05975e-06	-7.52685e-14	51409.8	0.000000000000000E+000	0.000000000000000E+000	0.00612195	0.00612195	0	4	0.000490166
1	1	0	0	0	0	0	2207.16	1	0.524773	0.998916	0.0253673	0.0323756	8	0.00704646	2.52985e-06	-7.52685e-14	54801.4	0.000000000000000E+000	0.000000000000000E+000	0.00704646	0.00704646	0	4	0.000524205
1	1	0	0	0	0	0	2210.78	1	0.55884	0.999044	0.0289789	0.0359872	8	0.00804968	3.07418e-06	-7.52685e-14	58312.1	0.000000000000000E+000	0.000000000000000E+000	0.00804968	0.00804968	0	4	0.000558306
1	1	0	0	0	0	0	2214.76	1	0.592907	0.999044	0.0329556	0.039964	8	0.00915433	3.71119e-06	-7.52685e-14	62059.9	0.000000000000000E+000	0.000000000000000E+000	0.00915433	0.00915433	0	4	0.00059234
1	1	0	0	0	0	0	2219.13	1	0.627108	0.99898	0.0373223	0.0443307	8	0.0103673	4.4521e-06	-7.52685e-14	66030.4	0.000000000000000E+000	0.000000000000000E+000	0.0103673	0.0103673	0	4	0.000626469
1	1	0	0	0	0	0	2223.94	1	0.661309	0.999299	0.0421317	0.0491401	8	0.0117033	5.31382e-06	-7.52685e-14	70286.3	0.000000000000000E+000	0.000000000000000E+000	0.0117033	0.0117033	0	4	0.000660845
1	1	0	0	0	0	0	2229.22	1	0.695433	0.999362	0.0474099	0.0544182	8	0.0131694	6.30962e-06	-7.52685e-14	74831.6	0.000000000000000E+000	0.000000000000000E+000	0.0131694	0.0131694	0	4	0.00069499
1	1	0	0	0	0	0	2235.03	1	0.729348	0.999936	0.053206	0.0602144	8	0.0147795	7.45786e-06	-7.52685e-14	79713.2	0.000000000000000E+000	0.000000000000000E+000	0.0147795	0.0147795	0	4	0.000729301
1	1	0	0	0	0	0	2241.54	1	0.763071	0.999554	0.0597099	0.0667183	8	0.0165861	8.80741e-06	-7.52685e-14	85154.8	0.000000000000000E+000	0.000000000000000E+000	0.0165861	0.0165861	0	4	0.00076273
1	1	0	0	0	0	0	2249.06	1	0.797004	0.999426	0.0672245	0.0742329	8	0.0186735	1.04376e-05	-7.52685e-14	91446.4	0.000000000000000E+000	0.000000000000000E+000	0.0186735	0.0186735	0	4	0.000796547
1	0	0	1	0	0	1	2249.96	-1	0.70966	-1.00177	-0.000190824	0.0747527	9	-5.30067e-05	1.05953e-05	-3.7986e-08	92068.6	6196.64	5.30067e-05	0.000000000000000E+000	5.30067e-05	0	4	-0.000710918
1	0	0	1	0	0	1	2251.15	-1	0.675593	-1.00247	-0.00138711	0.0735564	9	-0.000385309	1.05953e-05	-2.67248e-07	92068.6	21385.2	0.000385309	0.000000000000000E+000	0.000385309	0	4	-0.000677264
1	0	0	1	0	0	1	2253.03	-1	0.641335	-1.00273	-0.00327014	0.0716734	9	-0.000908373	1.05953e-05	-6.10988e-07	92068.6	32991.2	0.000908373	0.000000000000000E+000	0.000908373	0	4	-0.000643085
1	0	0	1	0	0	1	2255.32	-1	0.607382	-1.00311	-0.00556821	0.0693753	9	-0.00154673	1.05953e-05	-1.00894e-06	92068.6	41842.9	0.00154673	0.000000000000000E+000	0.00154673	0	4	-0.000609272
1	0	0	1	0	0	1	2257.99	-1	0.573029	-1.00196	-0.00823872	0.0667048	9	-0.00228853	1.05953e-05	-1.44613e-06	92068.6	49207.6	0.00228853	0.000000000000000E+000	0.00228853	0	4	-0.000574154
1	0	0	1	0	0	1	2260.94	-1	0.538656	-1.00228	-0.0111984	0.0637451	9	-0.00311067	1.05953e-05	-1.90247e-06	92068.6	55492.5	0.00311067	0.000000000000000E+000	0.00311067	0	4	-0.000539886
1	0	0	1	0	0	1	2264.09	-1	0.504646	-1.00222	-0.0143504	0.0605931	9	-0.00398622	1.05953e-05	-2.35858e-06	92068.6	60855.7	0.00398622	0.000000000000000E+000	0.00398622	0	4	-0.000505766
1	0	0	1	0	0	1	2267.43	-1	0.470598	-1.0026	-0.0177019	0.0572416	9	-0.0049172	1.05953e-05	-2.812e-06	92068.6	65597.1	0.0049172	0.000000000000000E+000	0.0049172	0	4	-0.000471822
1	0	0	1	0	0	1	2270.93	-1	0.436474	-1.00241	-0.0212072	0.0537364	9	-0.00589088	1.05953e-05	-3.25305e-06	92068.6	69764.4	0.00589088	0.000000000000000E+000	0.00589088	0	4	-0.000437526
1	0	0	1	0	0	1	2274.46	-1	0.402426	-1.00298	-0.0247472	0.0501963	9	-0.00687423	1.05953e-05	-3.66501e-06	92068.6	73210	0.00687423	0.000000000000000E+000	0.00687423	0	4	-0.000403626
1	0	0	1	0	0	1	2278.03	-1	0.368091	-1.0033	-0.0283295	0.0466141	9	-0.00786929	1.05953e-05	-4.04784e-06	92068.6	76079.8	0.00786929	0.000000000000000E+000	0.00786929	0	4	-0.000369307
1	0	0	1	0	0	1	2281.56	-1	0.334024	-1.00286	-0.0318635	0.04308	9	-0.00885098	1.05953e-05	-4.39197e-06	92068.6	78398.1	0.00885098	0.000000000000000E+000	0.00885098	0	4	-0.000334978
1	0	0	1	0	0	1	2285.05	-1	0.299843	-1.00254	-0.0353649	0.0395786	9	-0.00982359	1.05953e-05	-4.69975e-06	92068.6	80262.8	0.00982359	0.000000000000000E+000	0.00982359	0	4	-0.000300603
1	0	0	1	0	0	1	2288.47	-1	0.265718	-1.00203	-0.0387907	0.0361528	9	-0.0107752	1.05953e-05	-4.96839e-06	92068.6	81709.6	0.0107752	0.000000000000000E+000	0.0107752	0	4	-0.000266257
1	0	0	1	0	0	1	2291.85	-1	0.231288	-1.00216	-0.0421736	0.0327699	9	-0.0117149	1.05953e-05	-5.20143e-06	92068.6	82828.4	0.0117149	0.000000000000000E+000	0.0117149	0	4	-0.000231787
1	0	0	1	0	0	1	2295.18	-1	0.196992	-1.00267	-0.0455174	0.0294261	9	-0.0126437	1.05953e-05	-5.39985e-06	92068.6	83754.2	0.0126437	0.000000000000000E+000	0.0126437	0	4	-0.000197517
1	0	0	1	0	0	1	2298.5	-1	0.16281	-1.0019	-0.0488433	0.0261002	9	-0.0135676	1.05953e-05	-5.5656e-06	92068.6	84555.8	0.0135676	0.000000000000000E+000	0.0135676	0	4	-0.00016312
1	0	0	1	0	0	1	2301.85	-1	0.128629	-1.00228	-0.0522002	0.0227433	9	-0.0145	1.05953e-05	-5.70103e-06	92068.6	85318.4	0.0145	0.000000000000000E+000	0.0145	0	4	-0.000128922
1	0	0	1	0	0	1	2305.21	-1	0.0945807	-1.00209	-0.0555671	0.0193765	9	-0.0154353	1.05953e-05	-5.80489e-06	92068.6	86033.7	0.0154353	0.000000000000000E+000	0.0154353	0	4	-9.47785e-05
1	0	0	1	0	0	1	2308.58	-1	0.0608573	-1.00209	-0.0589411	0.0160025	9	-0.0163725	1.05953e-05	-5.8772e-06	92068.6	86729.2	0.0163725	0.000000000000000E+000	0.0163725	0	4	-6.09846e-05
1	0	0	1	0	0	1	2312.03	-1	0.0267902	-1.00305	-0.0623994	0.0125441	9	-0.0173332	1.05953e-05	-5.91873e-06	92068.6	87435.1	0.0173332	0.000000000000000E+000	0.0173332	0	4	-2.68718e-05
1	1	0	0	0	1	0	2314.8	1	0.068572	0.99949	1.9933e-06	0.00976437	10	5.53878e-07	3.67067e-11	-7.57872e-14	288.246	0.000000000000000E+000	0.000000000000000E+000	5.53878e-07	5.53878e-07	0	5	6.8537e-05
1	1	0	0	0	1	0	2315.01	1	0.10388	0.999171	0.000204415	0.00996679	10	5.6782e-05	5.32153e-09	-7.57872e-14	4839.25	0.000000000000000E+000	0.000000000000000E+000	5.6782e-05	5.6782e-05	0	5	0.000103794
1	1	0	0	0	1	0	2315.71	1	0.138329	0.998916	0.000911601	0.010674	10	0.000253222	2.95613e-08	-7.57872e-14	11886.7	0.000000000000000E+000	0.000000000000000E+000	0.000253222	0.000253222	0	5	0.000138179
1	1	0	0	0	1	0	2316.77	1	0.172855	0.999617	0.0019647	0.0117271	10	0.000545749	7.546e-08	-7.57872e-14	17665.6	0.000000000000000E+000	0.000000000000000E+000	0.000545749	0.000545749	0	5	0.000172789
1	1	0	0	0	1	0	2318.07	1	0.207036	0.999299	0.00326238	0.0130248	10	0.000906216	1.44302e-07	-7.57872e-14	22437.6	0.000000000000000E+000	0.000000000000000E+000	0.000906216	0.000906216	0	5	0.000206891
1	1	0	0	0	1	0	2319.58	1	0.241218	0.998916	0.00477829	0.0145407	10	0.0013273	2.3908e-07	-7.57872e-14	26608.2	0.000000000000000E+000	0.000000000000000E+000	0.0013273	0.0013273	0	5	0.000240957
1	1	0	0	0	1	0	2321.31	1	0.275553	0.99898	0.00649704	0.0162594	10	0.00180473	3.62845e-07	-7.57872e-14	30372.2	0.000000000000000E+000	0.000000000000000E+000	0.00180473	0.00180473	0	5	0.000275271
1	1	0	0	0	1	0	2323.24	1	0.309887	0.999554	0.00842697	0.0181893	10	0.00234083	5.20186e-07	-7.57872e-14	33945.7	0.000000000000000E+000	0.000000000000000E+000	0.00234083	0.00234083	0	5	0.000309749
1	1	0	0	0	1	0	2325.35	1	0.34405	0.998853	0.0105403	0.0203027	10	0.00292786	7.12583e-07	-7.57872e-14	37322.5	0.000000000000000E+000	0.000000000000000E+000	0.00292786	0.00292786	0	5	0.000343655
1	1	0	0	0	1	0	2327.67	1	0.37825	0.999554	0.0128537	0.022616	10	0.00357046	9.45144e-07	-7.57872e-14	40597.5	0.000000000000000E+000	0.000000000000000E+000	0.00357046	0.00357046	0	5	0.000378081
1	1	0	0	0	1	0	2330.17	1	0.412241	0.999235	0.0153586	0.025121	10	0.00426628	1.22068e-06	-7.57872e-14	43806.3	0.000000000000000E+000	0.000000000000000E+000	0.00426628	0.00426628	0	5	0.000411926
1	1	0	0	0	1	0	2332.92	1	0.446556	0.999108	0.0181052	0.0278675	10	0.00502921	1.54886e-06	-7.57872e-14	47036.4	0.000000000000000E+000	0.000000000000000E+000	0.00502921	0.00502921	0	5	0.000446158
1	1	0	0	0	1	0	2335.91	1	0.480814	0.999044	0.0210895	0.0308519	10	0.00585821	1.93393e-06	-7.57872e-14	50311.9	0.000000000000000E+000	0.000000000000000E+000	0.00585821	0.00585821	0	5	0.000480355
1	1	0	0	0	1	0	2339.12	1	0.51471	0.99898	0.0242924	0.0340548	10	0.00674789	2.37749e-06	-7.57872e-14	53617.2	0.000000000000000E+000	0.000000000000000E+000	0.00674789	0.00674789	0	5	0.000514185
1	1	0	0	0	1	0	2342.64	1	0.548758	0.998916	0.0278085	0.0375709	10	0.00772459	2.8976e-06	-7.57872e-14	57087.7	0.000000000000000E+000	0.000000000000000E+000	0.00772459	0.00772459	0	5	0.000548163
1	1	0	0	0	1	0	2346.47	1	0.582672	0.998916	0.0316379	0.0414003	10	0.00878832	3.50018e-06	-7.57872e-14	60721.5	0.000000000000000E+000	0.000000000000000E+000	0.00878832	0.00878832	0	5	0.000582041
1	1	0	0	0	1	0	2350.72	1	0.616911	0.99898	0.0358882	0.0456506	10	0.00996894	4.20924e-06	-7.57872e-14	64631.7	0.000000000000000E+000	0.000000000000000E+000	0.00996894	0.00996894	0	5	0.000616282
1	1	0	0	0	1	0	2355.4	1	0.651303	0.999108	0.0405585	0.0503209	10	0.0112663	5.03284e-06	-7.57872e-14	68782.4	0.000000000000000E+000	0.000000000000000E+000	0.0112663	0.0112663	0	5	0.000650721
1	1	0	0	0	1	0	2360.55	1	0.685446	0.998662	0.045703	0.0554654	10	0.0126953	5.98908e-06	-7.57872e-14	73264.6	0.000000000000000E+000	0.000000000000000E+000	0.0126953	0.0126953	0	5	0.000684529
1	1	0	0	0	1	0	2366.19	1	0.719685	0.998853	0.051345	0.0611074	10	0.0142625	7.09143e-06	-7.57872e-14	78026.4	0.000000000000000E+000	0.000000000000000E+000	0.0142625	0.0142625	0	5	0.000718859
1	1	0	0	0	1	0	2372.57	1	0.754058	1	0.0577119	0.0674743	10	0.0160311	8.39619e-06	-7.57872e-14	83348.3	0.000000000000000E+000	0.000000000000000E+000	0.0160311	0.0160311	0	5	0.000754057
1	1	0	0	0	1	0	2379.8	1	0.788373	0.999171	0.0649428	0.0747051	10	0.0180397	9.94721e-06	-7.57872e-14	89362.4	0.000000000000000E+000	0.000000000000000E+000	0.0180397	0.0180397	0	5	0.00078772
1	0	0	1	0	1	1	2382.54	-1	0.718501	-1.00235	-6.37424e-05	0.0773136	11	-1.77055e-05	1.05371e-05	-1.28084e-08	91614.3	2903.36	1.77055e-05	0.000000000000000E+000	1.77055e-05	0	5	-0.000720187
1	0	0	1	0	1	1	2383.46	-1	0.684415	-1.00279	-0.000984441	0.0763929	11	-0.000273457	1.05371e-05	-1.91184e-07	91614.3	17566.4	0.000273457	0.000000000000000E+000	0.000273457	0	5	-0.000686326
1	0	0	1	0	1	1	2385.19	-1	0.650042	-1.00235	-0.0027212	0.0746561	11	-0.00075589	1.05371e-05	-5.12382e-07	91614.3	30097.1	0.00075589	0.000000000000000E+000	0.00075589	0	5	-0.000651568
1	0	0	1	0	1	1	2387.42	-1	0.615441	-1.00241	-0.00495443	0.0724229	11	-0.00137623	1.05371e-05	-9.04287e-07	91614.3	39630.5	0.00137623	0.000000000000000E+000	0.00137623	0	5	-0.000616924
1	0	0	1	0	1	1	2390.01	-1	0.581125	-1.00209	-0.00754548	0.0698319	11	-0.00209597	1.05371e-05	-1.33428e-06	91614.3	47357.2	0.00209597	0.000000000000000E+000	0.00209597	0	5	-0.000582341
1	0	0	1	0	1	1	2392.86	-1	0.546982	-1.00241	-0.0104066	0.0669707	11	-0.00289073	1.05371e-05	-1.78194e-06	91614.3	53788	0.00289073	0.000000000000000E+000	0.00289073	0	5	-0.0005483
1	0	0	1	0	1	1	2395.96	-1	0.512915	-1.00279	-0.0135098	0.0638676	11	-0.00375272	1.05371e-05	-2.23811e-06	91614.3	59372.8	0.00375272	0.000000000000000E+000	0.00375272	0	5	-0.000514347
1	0	0	1	0	1	1	2399.28	-1	0.478542	-1.00209	-0.0168421	0.0605353	11	-0.00467836	1.05371e-05	-2.69633e-06	91614.3	64303.8	0.00467836	0.000000000000000E+000	0.00467836	0	5	-0.000479543
1	0	0	1	0	1	1	2402.74	-1	0.444322	-1.00286	-0.0203106	0.0570667	11	-0.00564184	1.05371e-05	-3.14032e-06	91614.3	68585.8	0.00564184	0.000000000000000E+000	0.00564184	0	5	-0.000445591
1	0	0	1	0	1	1	2406.25	-1	0.410465	-1.00267	-0.023822	0.0535554	11	-0.00661722	1.05371e-05	-3.55671e-06	91614.3	72189.7	0.00661722	0.000000000000000E+000	0.00661722	0	5	-0.000411559
1	0	0	1	0	1	1	2409.8	-1	0.376245	-1.00241	-0.0273847	0.0499927	11	-0.00760686	1.05371e-05	-3.94546e-06	91614.3	75189	0.00760686	0.000000000000000E+000	0.00760686	0	5	-0.000377152
1	0	0	1	0	1	1	2413.32	-1	0.342159	-1.00273	-0.0309103	0.046467	11	-0.00858621	1.05371e-05	-4.29674e-06	91614.3	77606.2	0.00858621	0.000000000000000E+000	0.00858621	0	5	-0.000343093
1	0	0	1	0	1	1	2416.8	-1	0.308187	-1.00216	-0.0343967	0.0429807	11	-0.00955463	1.05371e-05	-4.61119e-06	91614.3	79572.4	0.00955463	0.000000000000000E+000	0.00955463	0	5	-0.000308852
1	0	0	1	0	1	1	2420.2	-1	0.274159	-1.00184	-0.0378086	0.0395687	11	-0.0105024	1.05371e-05	-4.88674e-06	91614.3	81082.5	0.0105024	0.000000000000000E+000	0.0105024	0	5	-0.000274662
1	0	0	1	0	1	1	2423.58	-1	0.23992	-1.00273	-0.0411964	0.0361809	11	-0.0114435	1.05371e-05	-5.12818e-06	91614.3	82304.5	0.0114435	0.000000000000000E+000	0.0114435	0	5	-0.000240574
1	0	0	1	0	1	1	2426.88	-1	0.206043	-1.00317	-0.0445073	0.03287	11	-0.0123631	1.05371e-05	-5.33275e-06	91614.3	83282.6	0.0123631	0.000000000000000E+000	0.0123631	0	5	-0.000206698
1	0	0	1	0	1	1	2430.2	-1	0.171862	-1.00267	-0.0478338	0.0295435	11	-0.0132872	1.05371e-05	-5.50684e-06	91614.3	84126.4	0.0132872	0.000000000000000E+000	0.0132872	0	5	-0.00017232
1	0	0	1	0	1	1	2433.52	-1	0.137909	-1.00247	-0.0511612	0.0262162	11	-0.0142114	1.05371e-05	-5.64953e-06	91614.3	84908.2	0.0142114	0.000000000000000E+000	0.0142114	0	5	-0.00013825
1	0	0	1	0	1	1	2436.85	-1	0.104071	-1.00279	-0.0544983	0.022879	11	-0.0151384	1.05371e-05	-5.76122e-06	91614.3	85637.4	0.0151384	0.000000000000000E+000	0.0151384	0	5	-0.000104362
1	0	0	1	0	1	1	2440.25	-1	0.0699278	-1.00254	-0.0579055	0.0194718	11	-0.0160849	1.05371e-05	-5.84302e-06	91614.3	86358	0.0160849	0.000000000000000E+000	0.0160849	0	5	-7.01053e-05
1	0	0	1	0	1	1	2443.73	-1	0.0354215	-1.00247	-0.0613941	0.0159832	11	-0.0170539	1.05371e-05	-5.89348e-06	91614.3	87079.6	0.0170539	0.000000000000000E+000	0.0170539	0	5	-3.55092e-05
1	0	0	1	0	1	1	2447.25	-1	0.00129716	-1.00184	-0.0649203	0.0124571	11	-0.0180334	1.05371e-05	-5.9109e-06	91614.3	87829.9	0.0180334	0.000000000000000E+000	0.0180334	0	5	-1.29954e-06
1	0	0	1	0	1	1	2447.38	-1	0.000208689	-1.00107	-0.0650528	0.0123246	11	-0.0180702	1.05371e-05	-5.91091e-06	91614.3	87879.7	0.0180702	0.000000000000000E+000	0.0180702	96.2106	5	-2.08913e-07