File: Input_data/[1] JJ1-53 1st SC total meas_06_CP.mpt
EC-Lab ASCII FILE
Nb header lines : 52

Chronopotentiometry

Run on channel : 1 (SN 31418)
User :
CE vs. WE compliance from -10 V to 10 V
Electrode connection : standard
Ewe ctrl range : min = -10.00 V, max = 10.00 V
Safety Limits :
	Do not start on E overload
Acquisition started on : 01/25/2023 15:21:28
Technique started on : 01/25/2023 16:02:15
Saved on :
	File : [1] JJ1-53 1st SC total meas_06_CP.mpr
	Directory : C:\Users\Potentiostat\Documents\EC-Lab\Data\Supercapacitor until 2021 02\(230125) SC JJ1-53 54 lower CB better viscosity\
	Host : 127.0.0.1
Device : SP-150 (SN 1275)
Address : USB
EC-Lab for windows v11.16 (software)
Internet server v11.16 (firmware)
Command interpretor v11.16 (firmware)
Electrode material : Au/Pd
Initial state :
Electrolyte : NaCl (0.2M)
Comments : Fe(CN)63-/Fe(CN)64- 5.10-3 M
Reference electrode : SCE Saturated Calomel Electrode (0.241 V)
Electrode surface area : 0.001 cm²
Characteristic mass : 0.001 g
Equivalent Weight : 0.000 g/eq.
Density : 0.000 g/cm3
Cycle Definition : Charge/Discharge alternance
Ns                  0                   1
Is                  0.500               -0.500
unit Is             mA                  mA
vs.                 <None>              <None>
ts (h:m:s)          24:00:0.0000        24:00:0.0000
EM (V)              0.800               0.000
dQM                 12.000              12.000
unit dQM            mA.h                mA.h
record              Ewe                 Ewe
dEs (mV)            1.00                1.00
dts (s)             1.0000              1.0000
E range min (V)     -10.000             -10.000
E range max (V)     10.000              10.000
I Range             10 mA               10 mA
Bandwidth           5                   5
goto Ns'            0                   0
nc cycles           0                   2

mode	ox/red	error	control changes	Ns changes	counter inc.	Ns	time/s	control/mA	Ewe/V	I/mA	dQ/C	(Q-Qo)/C	half cycle	Q charge/discharge/mA.h	Energy charge/W.h	Energy discharge/W.h	Capacitance charge/µF	Capacitance discharge/µF	Q discharge/mA.h	Q charge/mA.h	Capacity/mA.h	Efficiency/%	cycle number	P/W
1	1	0	0	0	0	0	2447.49	0.5	0.0617987	0.494125	0.0000000E+000	0.0000000E+000	0	0.000000000000000E+000	0.000000000000000E+000	0.000000000000000E+000	0.000000000000000E+000	0.000000000000000E+000	0.000000000000000E+000	0.000000000000000E+000	0.000000000000000E+000	0	0.000000000000000E+000	3.05363e-05
1	1	0	0	0	0	0	2447.7	0.5	0.0808316	0.498776	0.000106691	0.000106691	0	2.96365e-05	2.22776e-09	0.000000000000000E+000	5918.57	0.000000000000000E+000	0.000000000000000E+000	2.96365e-05	2.96365e-05	0	0.000000000000000E+000	4.03168e-05
1	1	0	0	0	0	0	2448.26	0.5	0.0994119	0.499222	0.000387783	0.000387783	0	0.000107718	9.36546e-09	0.000000000000000E+000	10593.2	0.000000000000000E+000	0.000000000000000E+000	0.000107718	0.000107718	0	0.000000000000000E+000	4.96286e-05
1	1	0	0	0	0	0	2449.08	0.5	0.118298	0.497884	0.000794219	0.000794219	0	0.000220617	2.17707e-08	0.000000000000000E+000	14312.1	0.000000000000000E+000	0.000000000000000E+000	0.000220617	0.000220617	0	0.000000000000000E+000	5.88985e-05
1	1	0	0	0	0	0	2450.08	0.5	0.136974	0.499286	0.00129449	0.00129449	0	0.000359581	3.96266e-08	0.000000000000000E+000	17453.4	0.000000000000000E+000	0.000000000000000E+000	0.000359581	0.000359581	0	0.000000000000000E+000	6.83889e-05
1	1	0	0	0	0	0	2451.26	0.5	0.155554	0.498585	0.0018845	0.0018845	0	0.000523473	6.37204e-08	0.000000000000000E+000	20318.3	0.000000000000000E+000	0.000000000000000E+000	0.000523473	0.000523473	0	0.000000000000000E+000	7.75568e-05
1	1	0	0	0	0	0	2452.61	0.5	0.174115	0.49833	0.00255608	0.00255608	0	0.000710023	9.46095e-08	0.000000000000000E+000	22963.6	0.000000000000000E+000	0.000000000000000E+000	0.000710023	0.000710023	0	0.000000000000000E+000	8.67668e-05
1	1	0	0	0	0	0	2454.12	0.5	0.192695	0.498648	0.00330694	0.00330694	0	0.000918595	1.33006e-07	0.000000000000000E+000	25459.5	0.000000000000000E+000	0.000000000000000E+000	0.000918595	0.000918595	0	0.000000000000000E+000	9.60872e-05
1	1	0	0	0	0	0	2455.79	0.5	0.211295	0.499349	0.0041393	0.0041393	0	0.0011498	1.79855e-07	0.000000000000000E+000	27876	0.000000000000000E+000	0.000000000000000E+000	0.0011498	0.0011498	0	0.000000000000000E+000	0.00010551
1	1	0	0	0	0	0	2457.62	0.5	0.230009	0.49833	0.00505526	0.00505526	0	0.00140424	2.36163e-07	0.000000000000000E+000	30234.1	0.000000000000000E+000	0.000000000000000E+000	0.00140424	0.00140424	0	0.000000000000000E+000	0.00011462
1	1	0	0	0	0	0	2459.6	0.5	0.248627	0.498776	0.00603962	0.00603962	0	0.00167767	3.01784e-07	0.000000000000000E+000	32502.1	0.000000000000000E+000	0.000000000000000E+000	0.00167767	0.00167767	0	0.000000000000000E+000	0.000124009
1	1	0	0	0	0	0	2461.68	0.5	0.267017	0.498139	0.00707876	0.00707876	0	0.00196632	3.76379e-07	0.000000000000000E+000	34663.8	0.000000000000000E+000	0.000000000000000E+000	0.00196632	0.00196632	0	0.000000000000000E+000	0.000133011
1	1	0	0	0	0	0	2463.92	0.5	0.285368	0.498967	0.00819239	0.00819239	0	0.00227566	4.62002e-07	0.000000000000000E+000	36809.4	0.000000000000000E+000	0.000000000000000E+000	0.00227566	0.00227566	0	0.000000000000000E+000	0.000142389
1	1	0	0	0	0	0	2466.32	0.5	0.304044	0.498903	0.00939081	0.00939081	0	0.00260856	5.60305e-07	0.000000000000000E+000	38927.5	0.000000000000000E+000	0.000000000000000E+000	0.00260856	0.00260856	0	0.000000000000000E+000	0.000151688
1	1	0	0	0	0	0	2468.84	0.5	0.322395	0.499158	0.0106451	0.0106451	0	0.00295697	6.69632e-07	0.000000000000000E+000	41007.3	0.000000000000000E+000	0.000000000000000E+000	0.00295697	0.00295697	0	0.000000000000000E+000	0.000160926
1	1	0	0	0	0	0	2471.52	0.5	0.341051	0.498776	0.0119834	0.0119834	0	0.00332872	7.93173e-07	0.000000000000000E+000	43067.6	0.000000000000000E+000	0.000000000000000E+000	0.00332872	0.00332872	0	0.000000000000000E+000	0.000170108
1	1	0	0	0	0	0	2474.36	0.5	0.359765	0.498648	0.0133984	0.0133984	0	0.00372178	9.31123e-07	0.000000000000000E+000	45118.5	0.000000000000000E+000	0.000000000000000E+000	0.00372178	0.00372178	0	0.000000000000000E+000	0.000179396
1	1	0	0	0	0	0	2477.33	0.5	0.378269	0.498712	0.0148811	0.0148811	0	0.00413363	1.08333e-06	0.000000000000000E+000	47171.9	0.000000000000000E+000	0.000000000000000E+000	0.00413363	0.00413363	0	0.000000000000000E+000	0.000188648
1	1	0	0	0	0	0	2480.41	0.5	0.396716	0.498521	0.0164148	0.0164148	0	0.00455967	1.24868e-06	0.000000000000000E+000	49159.3	0.000000000000000E+000	0.000000000000000E+000	0.00455967	0.00455967	0	0.000000000000000E+000	0.000197771
1	1	0	0	0	0	0	2483.65	0.5	0.415182	0.498394	0.0180332	0.0180332	0	0.00500922	1.43145e-06	0.000000000000000E+000	51175.9	0.000000000000000E+000	0.000000000000000E+000	0.00500922	0.00500922	0	0.000000000000000E+000	0.000206924
1	1	0	0	0	0	0	2487.07	0.5	0.433819	0.498202	0.019734	0.019734	0	0.00548167	1.6323e-06	0.000000000000000E+000	53189.3	0.000000000000000E+000	0.000000000000000E+000	0.00548167	0.00548167	0	0.000000000000000E+000	0.00021613
1	1	0	0	0	0	0	2490.68	0.5	0.45261	0.498202	0.0215352	0.0215352	0	0.00598201	1.85438e-06	0.000000000000000E+000	55246.2	0.000000000000000E+000	0.000000000000000E+000	0.00598201	0.00598201	0	0.000000000000000E+000	0.000225491
1	1	0	0	0	0	0	2494.38	0.5	0.471076	0.498266	0.0233804	0.0233804	0	0.00649456	2.09141e-06	0.000000000000000E+000	57267	0.000000000000000E+000	0.000000000000000E+000	0.00649456	0.00649456	0	0.000000000000000E+000	0.000234721
1	1	0	0	0	0	0	2498.33	0.5	0.48977	0.498648	0.0253492	0.0253492	0	0.00704145	2.35447e-06	0.000000000000000E+000	59370.7	0.000000000000000E+000	0.000000000000000E+000	0.00704145	0.00704145	0	0.000000000000000E+000	0.000244223
1	1	0	0	0	0	0	2502.42	0.5	0.508179	0.497884	0.0273919	0.0273919	0	0.00760885	2.63792e-06	0.000000000000000E+000	61503.1	0.000000000000000E+000	0.000000000000000E+000	0.00760885	0.00760885	0	0.000000000000000E+000	0.000253014
1	1	0	0	0	0	0	2506.73	0.5	0.526664	0.498967	0.0295399	0.0295399	0	0.00820551	2.94699e-06	0.000000000000000E+000	63682.9	0.000000000000000E+000	0.000000000000000E+000	0.00820551	0.00820551	0	0.000000000000000E+000	0.000262788
1	1	0	0	0	0	0	2511.34	0.5	0.545301	0.498712	0.0318387	0.0318387	0	0.00884409	3.28961e-06	0.000000000000000E+000	65987.5	0.000000000000000E+000	0.000000000000000E+000	0.00884409	0.00884409	0	0.000000000000000E+000	0.000271948
1	1	0	0	0	0	0	2516.22	0.5	0.563996	0.498266	0.0342694	0.0342694	0	0.00951927	3.66448e-06	0.000000000000000E+000	68375.9	0.000000000000000E+000	0.000000000000000E+000	0.00951927	0.00951927	0	0.000000000000000E+000	0.00028102
1	1	0	0	0	0	0	2521.33	0.5	0.582538	0.498712	0.0368189	0.0368189	0	0.0102275	4.07084e-06	0.000000000000000E+000	70841.9	0.000000000000000E+000	0.000000000000000E+000	0.0102275	0.0102275	0	0.000000000000000E+000	0.000290519
1	1	0	0	0	0	0	2526.74	0.5	0.600947	0.498903	0.039517	0.039517	0	0.0109769	4.51474e-06	0.000000000000000E+000	73432.3	0.000000000000000E+000	0.000000000000000E+000	0.0109769	0.0109769	0	0.000000000000000E+000	0.000299814
1	1	0	0	0	0	0	2532.53	0.5	0.619546	0.498648	0.042402	0.042402	0	0.0117783	5.00427e-06	0.000000000000000E+000	76161.1	0.000000000000000E+000	0.000000000000000E+000	0.0117783	0.0117783	0	0.000000000000000E+000	0.000308936
1	1	0	0	0	0	0	2538.6	0.5	0.637993	0.498521	0.0454306	0.0454306	0	0.0126196	5.53374e-06	0.000000000000000E+000	78983.9	0.000000000000000E+000	0.000000000000000E+000	0.0126196	0.0126196	0	0.000000000000000E+000	0.000318053
1	1	0	0	0	0	0	2545.09	0.5	0.656516	0.498521	0.0486638	0.0486638	0	0.0135177	6.11559e-06	0.000000000000000E+000	81965.5	0.000000000000000E+000	0.000000000000000E+000	0.0135177	0.0135177	0	0.000000000000000E+000	0.000327287
1	1	0	0	0	0	0	2551.95	0.5	0.674943	0.498521	0.0520831	0.0520831	0	0.0144675	6.7485e-06	0.000000000000000E+000	85083.9	0.000000000000000E+000	0.000000000000000E+000	0.0144675	0.0144675	0	0.000000000000000E+000	0.000336473
1	1	0	0	0	0	0	2559.24	0.5	0.693485	0.498776	0.0557218	0.0557218	0	0.0154783	7.44066e-06	0.000000000000000E+000	88351.8	0.000000000000000E+000	0.000000000000000E+000	0.0154783	0.0154783	0	0.000000000000000E+000	0.000345894
1	1	0	0	0	0	0	2567.18	0.5	0.712104	0.498521	0.0596763	0.0596763	0	0.0165768	8.21335e-06	0.000000000000000E+000	91908.9	0.000000000000000E+000	0.000000000000000E+000	0.0165768	0.0165768	0	0.000000000000000E+000	0.000354999
1	1	0	0	0	0	0	2575.68	0.5	0.730665	0.498712	0.0639135	0.0639135	0	0.0177537	9.06316e-06	0.000000000000000E+000	95698.9	0.000000000000000E+000	0.000000000000000E+000	0.0177537	0.0177537	0	0.000000000000000E+000	0.000364392
1	1	0	0	0	0	0	2584.92	0.5	0.74915	0.498712	0.0685199	0.0685199	0	0.0190333	1.00107e-05	0.000000000000000E+000	99833.1	0.000000000000000E+000	0.000000000000000E+000	0.0190333	0.0190333	0	0.000000000000000E+000	0.00037361
1	1	0	0	0	0	0	2594.97	0.5	0.76752	0.49884	0.0735305	0.0735305	0	0.0204251	1.10671e-05	0.000000000000000E+000	104341	0.000000000000000E+000	0.000000000000000E+000	0.0204251	0.0204251	0	0.000000000000000E+000	0.000382869
1	1	0	0	0	0	0	2606.01	0.5	0.785814	0.498903	0.0790375	0.0790375	0	0.0219549	1.22563e-05	0.000000000000000E+000	109317	0.000000000000000E+000	0.000000000000000E+000	0.0219549	0.0219549	0	0.000000000000000E+000	0.000392045
1	0	0	1	0	0	1	2615.38	-0.5	0.767788	-0.502843	-7.02271e-07	0.0837055	1	-1.96613e-07	1.32853e-05	-1.5109e-10	113573	292.078	1.96613e-07	0.000000000000000E+000	1.96613e-07	0	0.000000000000000E+000	-0.000386077
1	0	0	1	0	0	1	2615.84	-0.5	0.748654	-0.502525	-0.000232269	0.0834739	1	-6.452e-05	1.32853e-05	-4.86215e-08	113573	10774.6	6.452e-05	0.000000000000000E+000	6.452e-05	0	0.000000000000000E+000	-0.000376217
1	0	0	1	0	0	1	2617.38	-0.5	0.730016	-0.502907	-0.00100837	0.0826978	1	-0.000280105	1.32853e-05	-2.0773e-07	113573	25087.1	0.000280105	0.000000000000000E+000	0.000280105	0	0.000000000000000E+000	-0.00036713
1	0	0	1	0	0	1	2619.51	-0.5	0.711359	-0.502716	-0.00207905	0.0816271	1	-0.000577515	1.32853e-05	-4.21814e-07	113573	35327	0.000577515	0.000000000000000E+000	0.000577515	0	0.000000000000000E+000	-0.000357612
1	0	0	1	0	0	1	2622.1	-0.5	0.692798	-0.503289	-0.00338069	0.0803255	1	-0.000939079	1.32853e-05	-6.75392e-07	113573	43670.8	0.000939079	0.000000000000000E+000	0.000939079	0	0.000000000000000E+000	-0.000348678
1	0	0	1	0	0	1	2625.03	-0.5	0.674294	-0.50227	-0.00485154	0.0788546	1	-0.00134765	1.32853e-05	-9.54387e-07	113573	50580.8	0.00134765	0.000000000000000E+000	0.00134765	0	0.000000000000000E+000	-0.000338678
1	0	0	1	0	0	1	2628.29	-0.5	0.65579	-0.503034	-0.0064898	0.0772164	1	-0.00180272	1.32853e-05	-1.25674e-06	113573	56718.8	0.00180272	0.000000000000000E+000	0.00180272	0	0.000000000000000E+000	-0.000329885
1	0	0	1	0	0	1	2631.85	-0.5	0.637191	-0.502843	-0.00828073	0.0754254	1	-0.0023002	1.32853e-05	-1.57802e-06	113573	62251.6	0.0023002	0.000000000000000E+000	0.0023002	0	0.000000000000000E+000	-0.000320407
1	0	0	1	0	0	1	2635.63	-0.5	0.61863	-0.502079	-0.0101775	0.0735287	1	-0.00282709	1.32853e-05	-1.9085e-06	113573	67142.2	0.00282709	0.000000000000000E+000	0.00282709	0	0.000000000000000E+000	-0.000310601
1	0	0	1	0	0	1	2639.6	-0.5	0.600107	-0.503417	-0.012176	0.0715302	1	-0.00338221	1.32853e-05	-2.24642e-06	113573	71579.4	0.00338221	0.000000000000000E+000	0.00338221	0	0.000000000000000E+000	-0.000302104
1	0	0	1	0	0	1	2643.77	-0.5	0.581584	-0.503735	-0.0142676	0.0694386	1	-0.00396321	1.32853e-05	-2.58936e-06	113573	75638.9	0.00396321	0.000000000000000E+000	0.00396321	0	0.000000000000000E+000	-0.000292964
1	0	0	1	0	0	1	2648.1	-0.5	0.562927	-0.502397	-0.0164473	0.0672589	1	-0.00456868	1.32853e-05	-2.93549e-06	113573	79346.4	0.00456868	0.000000000000000E+000	0.00456868	0	0.000000000000000E+000	-0.000282813
1	0	0	1	0	0	1	2652.56	-0.5	0.54448	-0.502461	-0.0186845	0.0650216	1	-0.00519015	1.32853e-05	-3.27927e-06	113573	82773.5	0.00519015	0.000000000000000E+000	0.00519015	0	0.000000000000000E+000	-0.00027358
1	0	0	1	0	0	1	2657.19	-0.5	0.525862	-0.502588	-0.0210139	0.0626923	1	-0.00583719	1.32853e-05	-3.62515e-06	113573	85999.3	0.00583719	0.000000000000000E+000	0.00583719	0	0.000000000000000E+000	-0.000264292
1	0	0	1	0	0	1	2661.89	-0.5	0.507243	-0.502397	-0.0233763	0.0603299	1	-0.00649342	1.32853e-05	-3.96376e-06	113573	88894.1	0.00649342	0.000000000000000E+000	0.00649342	0	0.000000000000000E+000	-0.000254838
1	0	0	1	0	0	1	2666.7	-0.5	0.488644	-0.50278	-0.0257931	0.0579131	1	-0.00716475	1.32853e-05	-4.2977e-06	113573	91605.4	0.00716475	0.000000000000000E+000	0.00716475	0	0.000000000000000E+000	-0.00024568
1	0	0	1	0	0	1	2671.51	-0.5	0.470235	-0.502206	-0.0282099	0.0554963	1	-0.00783608	1.32853e-05	-4.61924e-06	113573	94040.6	0.00783608	0.000000000000000E+000	0.00783608	0	0.000000000000000E+000	-0.000236155
1	0	0	1	0	0	1	2676.31	-0.5	0.45175	-0.502397	-0.0306192	0.053087	1	-0.00850533	1.32853e-05	-4.92743e-06	113573	96147.5	0.00850533	0.000000000000000E+000	0.00850533	0	0.000000000000000E+000	-0.000226958
1	0	0	1	0	0	1	2681.09	-0.5	0.433017	-0.50176	-0.0330224	0.0506838	1	-0.00917289	1.32853e-05	-5.22239e-06	113573	97933	0.00917289	0.000000000000000E+000	0.00917289	0	0.000000000000000E+000	-0.000217271
1	0	0	1	0	0	1	2685.67	-0.5	0.414628	-0.503226	-0.0353247	0.0483814	1	-0.00981242	1.32853e-05	-5.4931e-06	113573	99343.1	0.00981242	0.000000000000000E+000	0.00981242	0	0.000000000000000E+000	-0.000208651
1	0	0	1	0	0	1	2690.12	-0.5	0.396239	-0.502652	-0.0375631	0.046143	1	-0.0104342	1.32853e-05	-5.74489e-06	113573	100444	0.0104342	0.000000000000000E+000	0.0104342	0	0.000000000000000E+000	-0.00019917
1	0	0	1	0	0	1	2694.58	-0.5	0.377544	-0.502397	-0.0398039	0.0439023	1	-0.0110566	1.32853e-05	-5.98542e-06	113573	101368	0.0110566	0.000000000000000E+000	0.0110566	0	0.000000000000000E+000	-0.000189677
1	0	0	1	0	0	1	2698.96	-0.5	0.358944	-0.502397	-0.0420027	0.0417035	1	-0.0116674	1.32853e-05	-6.21003e-06	113573	102130	0.0116674	0.000000000000000E+000	0.0116674	0	0.000000000000000E+000	-0.000180333
1	0	0	1	0	0	1	2703.19	-0.5	0.340612	-0.503098	-0.0441296	0.0395765	1	-0.0122582	1.32853e-05	-6.41638e-06	113573	102723	0.0122582	0.000000000000000E+000	0.0122582	0	0.000000000000000E+000	-0.000171361
1	0	0	1	0	0	1	2707.47	-0.5	0.322108	-0.502907	-0.0462804	0.0374257	1	-0.0128557	1.32853e-05	-6.61405e-06	113573	103281	0.0128557	0.000000000000000E+000	0.0128557	0	0.000000000000000E+000	-0.000161991
1	0	0	1	0	0	1	2711.74	-0.5	0.303547	-0.503034	-0.0484275	0.0352786	1	-0.0134521	1.32853e-05	-6.80029e-06	113573	103774	0.0134521	0.000000000000000E+000	0.0134521	0	0.000000000000000E+000	-0.000152695
1	0	0	1	0	0	1	2716.03	-0.5	0.284967	-0.502206	-0.0505815	0.0331246	1	-0.0140504	1.32853e-05	-6.97603e-06	113573	104239	0.0140504	0.000000000000000E+000	0.0140504	0	0.000000000000000E+000	-0.000143112
1	0	0	1	0	0	1	2720.31	-0.5	0.266463	-0.502907	-0.052733	0.0309732	1	-0.014648	1.32853e-05	-7.14051e-06	113573	104681	0.014648	0.000000000000000E+000	0.014648	0	0.000000000000000E+000	-0.000134006
1	0	0	1	0	0	1	2724.59	-0.5	0.247883	-0.502588	-0.0548831	0.028823	1	-0.0152453	1.32853e-05	-7.29382e-06	113573	105074	0.0152453	0.000000000000000E+000	0.0152453	0	0.000000000000000E+000	-0.000124583
1	0	0	1	0	0	1	2728.9	-0.5	0.229188	-0.502716	-0.0570499	0.0266562	1	-0.0158472	1.32853e-05	-7.43709e-06	113573	105448	0.0158472	0.000000000000000E+000	0.0158472	0	0.000000000000000E+000	-0.000115216
1	0	0	1	0	0	1	2733.16	-0.5	0.210569	-0.50278	-0.0591886	0.0245175	1	-0.0164413	1.32853e-05	-7.56742e-06	113573	105762	0.0164413	0.000000000000000E+000	0.0164413	0	0.000000000000000E+000	-0.00010587
1	0	0	1	0	0	1	2737.38	-0.5	0.192199	-0.502142	-0.0613092	0.0223969	1	-0.0170303	1.32853e-05	-7.68576e-06	113573	106069	0.0170303	0.000000000000000E+000	0.0170303	0	0.000000000000000E+000	-9.65112e-05
1	0	0	1	0	0	1	2741.64	-0.5	0.173542	-0.502142	-0.063452	0.0202542	1	-0.0176256	1.32853e-05	-7.79427e-06	113573	106344	0.0176256	0.000000000000000E+000	0.0176256	0	0.000000000000000E+000	-8.71429e-05
1	0	0	1	0	0	1	2745.86	-0.5	0.155	-0.502079	-0.0655713	0.0181348	1	-0.0182143	1.32853e-05	-7.89067e-06	113573	106584	0.0182143	0.000000000000000E+000	0.0182143	0	0.000000000000000E+000	-7.78222e-05
1	0	0	1	0	0	1	2750.11	-0.5	0.136477	-0.502652	-0.0677052	0.0160009	1	-0.018807	1.32853e-05	-7.97674e-06	113573	106835	0.018807	0.000000000000000E+000	0.018807	0	0.000000000000000E+000	-6.86005e-05
1	0	0	1	0	0	1	2754.29	-0.5	0.118183	-0.502652	-0.0698058	0.0139003	1	-0.0193905	1.32853e-05	-8.05072e-06	113573	107060	0.0193905	0.000000000000000E+000	0.0193905	0	0.000000000000000E+000	-5.9405e-05
1	0	0	1	0	0	1	2758.54	-0.5	0.0997556	-0.502015	-0.0719419	0.0117643	1	-0.0199838	1.32853e-05	-8.11507e-06	113573	107303	0.0199838	0.000000000000000E+000	0.0199838	0	0.000000000000000E+000	-5.00788e-05
1	0	0	1	0	0	1	2762.84	-0.5	0.0811944	-0.502461	-0.0741048	0.00960132	1	-0.0205847	1.32853e-05	-8.16909e-06	113573	107552	0.0205847	0.000000000000000E+000	0.0205847	0	0.000000000000000E+000	-4.0797e-05
1	0	0	1	0	0	1	2767.18	-0.5	0.0624995	-0.50227	-0.0762859	0.0074203	1	-0.0211905	1.32853e-05	-8.21228e-06	113573	107792	0.0211905	0.000000000000000E+000	0.0211905	0	0.000000000000000E+000	-3.13916e-05
1	0	0	1	0	0	1	2771.62	-0.5	0.0437092	-0.503098	-0.0785168	0.00518939	1	-0.0218102	1.32853e-05	-8.24486e-06	113573	108075	0.0218102	0.000000000000000E+000	0.0218102	0	0.000000000000000E+000	-2.199e-05
1	0	0	1	0	0	1	2776	-0.5	0.025358	-0.503162	-0.0807159	0.00299031	1	-0.0224211	1.32853e-05	-8.26564e-06	113573	108365	0.0224211	0.000000000000000E+000	0.0224211	0	0.000000000000000E+000	-1.27592e-05
1	0	0	1	0	0	1	2780.45	-0.5	0.00691135	-0.502716	-0.0829533	0.000752878	1	-0.0230426	1.32853e-05	-8.27533e-06	113573	108677	0.0230426	0.000000000000000E+000	0.0230426	0	0.000000000000000E+000	-3.47445e-06
1	1	0	0	0	1	0	2782.15	0.5	0.0414558	0.498457	1.17646e-05	-7.78914e-05	2	3.26795e-06	1.27816e-10	-2.3781e-14	1143.17	0.000000000000000E+000	0.000000000000000E+000	3.26795e-06	3.26795e-06	0	1	2.0664e-05
1	1	0	0	0	1	0	2782.57	0.5	0.059998	0.498967	0.000220586	0.00013093	2	6.12739e-05	3.22936e-09	-2.3781e-14	7649.8	0.000000000000000E+000	0.000000000000000E+000	6.12739e-05	6.12739e-05	0	1	2.9937e-05
1	1	0	0	0	1	0	2783.47	0.5	0.0786547	0.498712	0.000669267	0.000579611	2	0.000185907	1.20146e-08	-2.3781e-14	14092.1	0.000000000000000E+000	0.000000000000000E+000	0.000185907	0.000185907	0	1	3.9226e-05
1	1	0	0	0	1	0	2784.67	0.5	0.0974259	0.498648	0.00126454	0.00117488	2	0.00035126	2.67173e-08	-2.3781e-14	19083.4	0.000000000000000E+000	0.000000000000000E+000	0.00035126	0.00035126	0	1	4.85813e-05
1	1	0	0	0	1	0	2786.08	0.5	0.116044	0.498521	0.0019694	0.00187974	2	0.000547055	4.77634e-08	-2.3781e-14	23201.5	0.000000000000000E+000	0.000000000000000E+000	0.000547055	0.000547055	0	1	5.78506e-05
1	1	0	0	0	1	0	2787.67	0.5	0.134529	0.498648	0.00275957	0.00266991	2	0.000766547	7.54211e-08	-2.3781e-14	26696.8	0.000000000000000E+000	0.000000000000000E+000	0.000766547	0.000766547	0	1	6.70828e-05
1	1	0	0	0	1	0	2789.41	0.5	0.153091	0.498521	0.00363079	0.00354113	2	0.00100855	1.10381e-07	-2.3781e-14	29778.1	0.000000000000000E+000	0.000000000000000E+000	0.00100855	0.00100855	0	1	7.63188e-05
1	1	0	0	0	1	0	2791.33	0.5	0.171671	0.49833	0.00458492	0.00449526	2	0.00127359	1.5358e-07	-2.3781e-14	32630.8	0.000000000000000E+000	0.000000000000000E+000	0.00127359	0.00127359	0	1	8.55487e-05
1	1	0	0	0	1	0	2793.37	0.5	0.19027	0.49833	0.00560277	0.00551312	2	0.00155633	2.04919e-07	-2.3781e-14	35213.6	0.000000000000000E+000	0.000000000000000E+000	0.00155633	0.00155633	0	1	9.48173e-05
1	1	0	0	0	1	0	2795.53	0.5	0.208755	0.498903	0.00668088	0.00659122	2	0.0018558	2.64836e-07	-2.3781e-14	37619	0.000000000000000E+000	0.000000000000000E+000	0.0018558	0.0018558	0	1	0.000104149
1	1	0	0	0	1	0	2797.81	0.5	0.227221	0.498776	0.00781787	0.00772821	2	0.00217163	3.33854e-07	-2.3781e-14	39875.1	0.000000000000000E+000	0.000000000000000E+000	0.00217163	0.00217163	0	1	0.000113332
1	1	0	0	0	1	0	2800.25	0.5	0.245935	0.499222	0.00903677	0.00894712	2	0.00251021	4.14155e-07	-2.3781e-14	42076	0.000000000000000E+000	0.000000000000000E+000	0.00251021	0.00251021	0	1	0.000122776
1	1	0	0	0	1	0	2802.79	0.5	0.264553	0.49884	0.010299	0.0102094	2	0.00286084	5.03844e-07	-2.3781e-14	44127.7	0.000000000000000E+000	0.000000000000000E+000	0.00286084	0.00286084	0	1	0.00013197
1	1	0	0	0	1	0	2805.45	0.5	0.283095	0.499094	0.0116274	0.0115377	2	0.00322982	6.05094e-07	-2.3781e-14	46152.6	0.000000000000000E+000	0.000000000000000E+000	0.00322982	0.00322982	0	1	0.000141291
1	1	0	0	0	1	0	2808.24	0.5	0.301771	0.498585	0.0130169	0.0129273	2	0.00361581	7.1821e-07	-2.3781e-14	48102.3	0.000000000000000E+000	0.000000000000000E+000	0.00361581	0.00361581	0	1	0.000150459
1	1	0	0	0	1	0	2811.14	0.5	0.320428	0.498776	0.0144645	0.0143749	2	0.00401792	8.43537e-07	-2.3781e-14	50004.3	0.000000000000000E+000	0.000000000000000E+000	0.00401792	0.00401792	0	1	0.000159822
1	1	0	0	0	1	0	2814.21	0.5	0.339256	0.498903	0.0159948	0.0159051	2	0.00444299	9.83991e-07	-2.3781e-14	51915.2	0.000000000000000E+000	0.000000000000000E+000	0.00444299	0.00444299	0	1	0.000169256
1	1	0	0	0	1	0	2817.36	0.5	0.357818	0.498394	0.0175642	0.0174745	2	0.00487895	1.13619e-06	-2.3781e-14	53769.8	0.000000000000000E+000	0.000000000000000E+000	0.00487895	0.00487895	0	1	0.000178334
1	1	0	0	0	1	0	2820.65	0.5	0.376455	0.498903	0.0192043	0.0191146	2	0.00533453	1.30372e-06	-2.3781e-14	55617.4	0.000000000000000E+000	0.000000000000000E+000	0.00533453	0.00533453	0	1	0.000187815
1	1	0	0	0	1	0	2824.05	0.5	0.395017	0.498648	0.0209014	0.0208118	2	0.00580595	1.48584e-06	-2.3781e-14	57444.5	0.000000000000000E+000	0.000000000000000E+000	0.00580595	0.00580595	0	1	0.000196974
1	1	0	0	0	1	0	2827.61	0.5	0.413673	0.498202	0.022676	0.0225863	2	0.00629888	1.68546e-06	-2.3781e-14	59281.9	0.000000000000000E+000	0.000000000000000E+000	0.00629888	0.00629888	0	1	0.000206093
1	1	0	0	0	1	0	2831.29	0.5	0.432234	0.498903	0.0245094	0.0244198	2	0.00680817	1.90117e-06	-2.3781e-14	61109.7	0.000000000000000E+000	0.000000000000000E+000	0.00680817	0.00680817	0	1	0.000215643
1	1	0	0	0	1	0	2835.15	0.5	0.450948	0.498457	0.0264336	0.0263439	2	0.00734266	2.13751e-06	-2.3781e-14	62969.1	0.000000000000000E+000	0.000000000000000E+000	0.00734266	0.00734266	0	1	0.000224779
1	1	0	0	0	1	0	2839.15	0.5	0.469529	0.498776	0.0284321	0.0283424	2	0.0078978	2.39334e-06	-2.3781e-14	64859.2	0.000000000000000E+000	0.000000000000000E+000	0.0078978	0.0078978	0	1	0.00023419
1	1	0	0	0	1	0	2843.32	0.5	0.488166	0.498075	0.0305108	0.0304211	2	0.00847522	2.67016e-06	-2.3781e-14	66762.6	0.000000000000000E+000	0.000000000000000E+000	0.00847522	0.00847522	0	1	0.000243143
1	1	0	0	0	1	0	2847.7	0.5	0.506651	0.498967	0.0326925	0.0326028	2	0.00908124	2.97195e-06	-2.3781e-14	68755.5	0.000000000000000E+000	0.000000000000000E+000	0.00908124	0.00908124	0	1	0.000252802
1	1	0	0	0	1	0	2852.25	0.5	0.52506	0.499158	0.0349611	0.0348714	2	0.0097114	3.29739e-06	-2.3781e-14	70786	0.000000000000000E+000	0.000000000000000E+000	0.0097114	0.0097114	0	1	0.000262088
1	1	0	0	0	1	0	2857.01	0.5	0.543411	0.499158	0.0373331	0.0372434	2	0.0103703	3.64977e-06	-2.3781e-14	72880.8	0.000000000000000E+000	0.000000000000000E+000	0.0103703	0.0103703	0	1	0.000271248
1	1	0	0	0	1	0	2862.14	0.5	0.56201	0.498139	0.0398914	0.0398017	2	0.0110809	4.04298e-06	-2.3781e-14	75146.6	0.000000000000000E+000	0.000000000000000E+000	0.0110809	0.0110809	0	1	0.000279959
1	1	0	0	0	1	0	2867.53	0.5	0.580667	0.498903	0.0425812	0.0424915	2	0.0118281	4.47035e-06	-2.3781e-14	77490.1	0.000000000000000E+000	0.000000000000000E+000	0.0118281	0.0118281	0	1	0.000289697
1	1	0	0	0	1	0	2873.29	0.5	0.599457	0.499477	0.0454499	0.0453603	2	0.012625	4.94106e-06	-2.3781e-14	79975.9	0.000000000000000E+000	0.000000000000000E+000	0.012625	0.012625	0	1	0.000299415
1	1	0	0	0	1	0	2879.27	0.5	0.617866	0.498457	0.0484346	0.048345	2	0.0134541	5.44618e-06	-2.3781e-14	82553.8	0.000000000000000E+000	0.000000000000000E+000	0.0134541	0.0134541	0	1	0.00030798
1	1	0	0	0	1	0	2885.67	0.5	0.636503	0.49833	0.0516249	0.0515352	2	0.0143402	6.00255e-06	-2.3781e-14	85282.3	0.000000000000000E+000	0.000000000000000E+000	0.0143402	0.0143402	0	1	0.000317189
1	1	0	0	0	1	0	2892.37	0.5	0.655007	0.498776	0.0549674	0.0548778	2	0.0152687	6.60268e-06	-2.3781e-14	88110.7	0.000000000000000E+000	0.000000000000000E+000	0.0152687	0.0152687	0	1	0.000326702
1	1	0	0	0	1	0	2899.43	0.5	0.673435	0.499286	0.0584853	0.0583956	2	0.0162459	7.25234e-06	-2.3781e-14	91059.9	0.000000000000000E+000	0.000000000000000E+000	0.0162459	0.0162459	0	1	0.000336236
1	1	0	0	0	1	0	2906.94	0.5	0.692034	0.499031	0.0622304	0.0621408	2	0.0172862	7.96325e-06	-2.3781e-14	94164.1	0.000000000000000E+000	0.000000000000000E+000	0.0172862	0.0172862	0	1	0.000345346
1	1	0	0	0	1	0	2914.73	0.5	0.710385	0.498967	0.0661152	0.0660255	2	0.0183653	8.72055e-06	-2.3781e-14	97339.4	0.000000000000000E+000	0.000000000000000E+000	0.0183653	0.0183653	0	1	0.000354459
1	1	0	0	0	1	0	2923.18	0.5	0.728966	0.498648	0.0703284	0.0702388	2	0.0195357	9.56354e-06	-2.3781e-14	100785	0.000000000000000E+000	0.000000000000000E+000	0.0195357	0.0195357	0	1	0.000363498
1	1	0	0	0	1	0	2932.23	0.5	0.747527	0.498202	0.0748415	0.0747518	2	0.0207893	1.04898e-05	-2.3781e-14	104474	0.000000000000000E+000	0.000000000000000E+000	0.0207893	0.0207893	0	1	0.00037242
1	1	0	0	0	1	0	2941.97	0.5	0.766107	0.498776	0.0796961	0.0796065	2	0.0221378	1.15112e-05	-2.3781e-14	108438	0.000000000000000E+000	0.000000000000000E+000	0.0221378	0.0221378	0	1	0.000382116
1	1	0	0	0	1	0	2952.8	0.5	0.784668	0.499031	0.0850926	0.085003	2	0.0236368	1.26745e-05	-2.3781e-14	112929	0.000000000000000E+000	0.000000000000000E+000	0.0236368	0.0236368	0	1	0.000391574
1	0	0	1	0	1	1	2962.41	-0.5	0.76922	-0.50227	-1.99555e-07	0.0897957	3	-5.58794e-08	1.37302e-05	-4.30426e-11	116957	155.541	5.58794e-08	0.000000000000000E+000	5.58794e-08	0	1	-0.000386356
1	0	0	1	0	1	1	2962.76	-0.5	0.75041	-0.502397	-0.000178801	0.0896171	3	-4.96664e-05	1.37302e-05	-3.74887e-08	116957	8886.16	4.96664e-05	0.000000000000000E+000	4.96664e-05	0	1	-0.000377004
1	0	0	1	0	1	1	2964.21	-0.5	0.731773	-0.501824	-0.000904138	0.0888917	3	-0.000251149	1.37302e-05	-1.86518e-07	116957	23327.2	0.000251149	0.000000000000000E+000	0.000251149	0	1	-0.000367221
1	0	0	1	0	1	1	2966.3	-0.5	0.713021	-0.502588	-0.00195599	0.0878399	3	-0.000543332	1.37302e-05	-3.97317e-07	116957	34010.7	0.000543332	0.000000000000000E+000	0.000543332	0	1	-0.000358356
1	0	0	1	0	1	1	2968.81	-0.5	0.694479	-0.502525	-0.00321509	0.0865808	3	-0.00089308	1.37302e-05	-6.43198e-07	116957	42274.2	0.00089308	0.000000000000000E+000	0.00089308	0	1	-0.000348993
1	0	0	1	0	1	1	2971.7	-0.5	0.675955	-0.502142	-0.00467045	0.0851254	3	-0.00129735	1.37302e-05	-9.19947e-07	116957	49382.9	0.00129735	0.000000000000000E+000	0.00129735	0	1	-0.000339426
1	0	0	1	0	1	1	2974.91	-0.5	0.657471	-0.502142	-0.0062835	0.0835124	3	-0.00174541	1.37302e-05	-1.2184e-06	116957	55576.1	0.00174541	0.000000000000000E+000	0.00174541	0	1	-0.000330144
1	0	0	1	0	1	1	2978.4	-0.5	0.638948	-0.502971	-0.00803474	0.0817611	3	-0.00223187	1.37302e-05	-1.53343e-06	116957	61061.6	0.00223187	0.000000000000000E+000	0.00223187	0	1	-0.000321372
1	0	0	1	0	1	1	2982.14	-0.5	0.620329	-0.502142	-0.00991669	0.0798792	3	-0.00275463	1.37302e-05	-1.86227e-06	116957	66022	0.00275463	0.000000000000000E+000	0.00275463	0	1	-0.000311494
1	0	0	1	0	1	1	2986.07	-0.5	0.601863	-0.503226	-0.0118914	0.0779045	3	-0.00330316	1.37302e-05	-2.19716e-06	116957	70501.5	0.00330316	0.000000000000000E+000	0.00330316	0	1	-0.000302873
1	0	0	1	0	1	1	2990.23	-0.5	0.58313	-0.503034	-0.013981	0.0758149	3	-0.00388361	1.37302e-05	-2.54074e-06	116957	74604.6	0.00388361	0.000000000000000E+000	0.00388361	0	1	-0.000293335
1	0	0	1	0	1	1	2994.52	-0.5	0.56455	-0.502652	-0.0161379	0.073658	3	-0.00448276	1.37302e-05	-2.88423e-06	116957	78346.4	0.00448276	0.000000000000000E+000	0.00448276	0	1	-0.000283772
1	0	0	1	0	1	1	2998.92	-0.5	0.546199	-0.502397	-0.0183483	0.0714476	3	-0.00509675	1.37302e-05	-3.22489e-06	116957	81790.4	0.00509675	0.000000000000000E+000	0.00509675	0	1	-0.000274409
1	0	0	1	0	1	1	3003.45	-0.5	0.527771	-0.502652	-0.0206228	0.0691731	3	-0.00572854	1.37302e-05	-3.56379e-06	116957	84951.1	0.00572854	0.000000000000000E+000	0.00572854	0	1	-0.000265285
1	0	0	1	0	1	1	3008.12	-0.5	0.509115	-0.50278	-0.0229718	0.0668241	3	-0.00638105	1.37302e-05	-3.90171e-06	116957	87874.1	0.00638105	0.000000000000000E+000	0.00638105	0	1	-0.000255972
1	0	0	1	0	1	1	3012.88	-0.5	0.490592	-0.502525	-0.0253613	0.0644346	3	-0.00704481	1.37302e-05	-4.23314e-06	116957	90595.5	0.00704481	0.000000000000000E+000	0.00704481	0	1	-0.000246534
1	0	0	1	0	1	1	3017.67	-0.5	0.472049	-0.503162	-0.0277673	0.0620285	3	-0.00771315	1.37302e-05	-4.55448e-06	116957	93028.4	0.00771315	0.000000000000000E+000	0.00771315	0	1	-0.000237517
1	0	0	1	0	1	1	3022.43	-0.5	0.453603	-0.502206	-0.030163	0.0596328	3	-0.00837862	1.37302e-05	-4.86215e-06	116957	95172.9	0.00837862	0.000000000000000E+000	0.00837862	0	1	-0.000227802
1	0	0	1	0	1	1	3027.15	-0.5	0.435022	-0.502971	-0.0325318	0.0572641	3	-0.00903661	1.37302e-05	-5.15418e-06	116957	96962.4	0.00903661	0.000000000000000E+000	0.00903661	0	1	-0.000218804
1	0	0	1	0	1	1	3031.72	-0.5	0.416576	-0.50278	-0.0348264	0.0549695	3	-0.00967401	1.37302e-05	-5.42528e-06	116957	98392	0.00967401	0.000000000000000E+000	0.00967401	0	1	-0.000209446
1	0	0	1	0	1	1	3036.18	-0.5	0.39811	-0.502461	-0.0370675	0.0527284	3	-0.0102965	1.37302e-05	-5.67856e-06	116957	99530.9	0.0102965	0.000000000000000E+000	0.0102965	0	1	-0.000200035
1	0	0	1	0	1	1	3040.56	-0.5	0.379606	-0.502652	-0.0392701	0.0505257	3	-0.0109084	1.37302e-05	-5.91619e-06	116957	100454	0.0109084	0.000000000000000E+000	0.0109084	0	1	-0.00019081
1	0	0	1	0	1	1	3044.87	-0.5	0.361064	-0.50278	-0.0414365	0.0483594	3	-0.0115101	1.37302e-05	-6.13876e-06	116957	101196	0.0115101	0.000000000000000E+000	0.0115101	0	1	-0.000181536
1	0	0	1	0	1	1	3049.16	-0.5	0.342579	-0.502461	-0.0435946	0.0462013	3	-0.0121096	1.37302e-05	-6.34939e-06	116957	101868	0.0121096	0.000000000000000E+000	0.0121096	0	1	-0.000172133
1	0	0	1	0	1	1	3053.46	-0.5	0.324037	-0.502652	-0.0457506	0.0440452	3	-0.0127085	1.37302e-05	-6.54869e-06	116957	102466	0.0127085	0.000000000000000E+000	0.0127085	0	1	-0.000162878
1	0	0	1	0	1	1	3057.75	-0.5	0.305533	-0.502525	-0.0479089	0.041887	3	-0.013308	1.37302e-05	-6.73711e-06	116957	103030	0.013308	0.000000000000000E+000	0.013308	0	1	-0.000153538
1	0	0	1	0	1	1	3062.12	-0.5	0.286819	-0.502397	-0.0501051	0.0396908	3	-0.0139181	1.37302e-05	-6.91747e-06	116957	103584	0.0139181	0.000000000000000E+000	0.0139181	0	1	-0.000144097
1	0	0	1	0	1	1	3066.47	-0.5	0.268182	-0.502334	-0.052293	0.0375028	3	-0.0145258	1.37302e-05	-7.08579e-06	116957	104097	0.0145258	0.000000000000000E+000	0.0145258	0	1	-0.000134717
1	0	0	1	0	1	1	3070.78	-0.5	0.249658	-0.503098	-0.0544588	0.0353371	3	-0.0151274	1.37302e-05	-7.24124e-06	116957	104553	0.0151274	0.000000000000000E+000	0.0151274	0	1	-0.000125603
1	0	0	1	0	1	1	3075.11	-0.5	0.23104	-0.502015	-0.0566309	0.033165	3	-0.0157308	1.37302e-05	-7.38596e-06	116957	104971	0.0157308	0.000000000000000E+000	0.0157308	0	1	-0.000115986
1	0	0	1	0	1	1	3079.41	-0.5	0.212536	-0.50278	-0.0587933	0.0310026	3	-0.0163315	1.37302e-05	-7.51888e-06	116957	105365	0.0163315	0.000000000000000E+000	0.0163315	0	1	-0.000106859
1	0	0	1	0	1	1	3083.69	-0.5	0.194032	-0.502206	-0.0609439	0.028852	3	-0.0169288	1.37302e-05	-7.64001e-06	116957	105714	0.0169288	0.000000000000000E+000	0.0169288	0	1	-9.74441e-05
1	0	0	1	0	1	1	3087.94	-0.5	0.175528	-0.503098	-0.0630813	0.0267146	3	-0.0175226	1.37302e-05	-7.74942e-06	116957	106018	0.0175226	0.000000000000000E+000	0.0175226	0	1	-8.83079e-05
1	0	0	1	0	1	1	3092.21	-0.5	0.157082	-0.503353	-0.0652258	0.0245701	3	-0.0181183	1.37302e-05	-7.84819e-06	116957	106326	0.0181183	0.000000000000000E+000	0.0181183	0	1	-7.90675e-05
1	0	0	1	0	1	1	3096.48	-0.5	0.138673	-0.503162	-0.0673699	0.022426	3	-0.0187139	1.37302e-05	-7.93595e-06	116957	106622	0.0187139	0.000000000000000E+000	0.0187139	0	1	-6.9775e-05
1	0	0	1	0	1	1	3100.78	-0.5	0.120093	-0.502525	-0.0695301	0.0202658	3	-0.0193139	1.37302e-05	-8.01325e-06	116957	106897	0.0193139	0.000000000000000E+000	0.0193139	0	1	-6.03496e-05
1	0	0	1	0	1	1	3105.09	-0.5	0.101532	-0.502971	-0.0717002	0.0180957	3	-0.0199167	1.37302e-05	-8.07971e-06	116957	107175	0.0199167	0.000000000000000E+000	0.0199167	0	1	-5.10674e-05
1	0	0	1	0	1	1	3109.43	-0.5	0.0829703	-0.502652	-0.0738779	0.0159179	3	-0.0205217	1.37302e-05	-8.13519e-06	116957	107449	0.0205217	0.000000000000000E+000	0.0205217	0	1	-4.17052e-05
1	0	0	1	0	1	1	3113.76	-0.5	0.0645619	-0.501888	-0.0760531	0.0137428	3	-0.0211259	1.37302e-05	-8.17945e-06	116957	107729	0.0211259	0.000000000000000E+000	0.0211259	0	1	-3.24028e-05
1	0	0	1	0	1	1	3118.17	-0.5	0.0459243	-0.50227	-0.0782687	0.0115272	3	-0.0217413	1.37302e-05	-8.21316e-06	116957	108015	0.0217413	0.000000000000000E+000	0.0217413	0	1	-2.30664e-05
1	0	0	1	0	1	1	3122.63	-0.5	0.0273631	-0.50227	-0.0805126	0.00928324	3	-0.0223646	1.37302e-05	-8.23572e-06	116957	108337	0.0223646	0.000000000000000E+000	0.0223646	0	1	-1.37436e-05
1	0	0	1	0	1	1	3127.16	-0.5	0.00878275	-0.502461	-0.0827898	0.00700606	3	-0.0229972	1.37302e-05	-8.24681e-06	116957	108684	0.0229972	0.000000000000000E+000	0.0229972	0	1	-4.41299e-06
1	1	0	0	0	0	0	3129.33	0.5	0.0389352	0.498394	5.48078e-06	0.00592973	4	1.52245e-06	5.61713e-11	-2.63277e-14	670.908	0.000000000000000E+000	0.000000000000000E+000	1.52245e-06	1.52245e-06	0	2	1.9405e-05
1	1	0	0	0	0	0	3129.67	0.5	0.057611	0.498967	0.000176289	0.00610054	4	4.89691e-05	2.49953e-09	-2.63277e-14	6565.83	0.000000000000000E+000	0.000000000000000E+000	4.89691e-05	4.89691e-05	0	2	2.8746e-05
1	1	0	0	0	0	0	3130.52	0.5	0.0763441	0.49833	0.000601786	0.00652603	4	0.000167163	1.05571e-08	-2.63277e-14	13202	0.000000000000000E+000	0.000000000000000E+000	0.000167163	0.000167163	0	2	3.80445e-05
1	1	0	0	0	0	0	3131.69	0.5	0.095249	0.49884	0.00118501	0.00710925	4	0.000329168	2.45986e-08	-2.63277e-14	18375.7	0.000000000000000E+000	0.000000000000000E+000	0.000329168	0.000329168	0	2	4.7514e-05
1	1	0	0	0	0	0	3133.09	0.5	0.114039	0.499222	0.0018801	0.00780434	4	0.000522249	4.49419e-08	-2.63277e-14	22576.1	0.000000000000000E+000	0.000000000000000E+000	0.000522249	0.000522249	0	2	5.69309e-05
1	1	0	0	0	0	0	3134.68	0.5	0.132849	0.498521	0.00267281	0.00859706	4	0.000742447	7.22763e-08	-2.63277e-14	26181.5	0.000000000000000E+000	0.000000000000000E+000	0.000742447	0.000742447	0	2	6.62279e-05
1	1	0	0	0	0	0	3136.4	0.5	0.151295	0.498266	0.00352983	0.00945408	4	0.00098051	1.0625e-07	-2.63277e-14	29284.9	0.000000000000000E+000	0.000000000000000E+000	0.00098051	0.00098051	0	2	7.53854e-05
1	1	0	0	0	0	0	3138.28	0.5	0.169857	0.499222	0.00446777	0.010392	4	0.00124105	1.48246e-07	-2.63277e-14	32120.1	0.000000000000000E+000	0.000000000000000E+000	0.00124105	0.00124105	0	2	8.47962e-05
1	1	0	0	0	0	0	3140.3	0.5	0.188418	0.498712	0.00547552	0.0113998	4	0.00152098	1.98563e-07	-2.63277e-14	34730.6	0.000000000000000E+000	0.000000000000000E+000	0.00152098	0.00152098	0	2	9.39663e-05
1	1	0	0	0	0	0	3142.44	0.5	0.206845	0.497756	0.00654211	0.0124664	4	0.00181725	2.57315e-07	-2.63277e-14	37153.3	0.000000000000000E+000	0.000000000000000E+000	0.00181725	0.00181725	0	2	0.000102959
1	1	0	0	0	0	0	3144.69	0.5	0.225407	0.498776	0.0076666	0.0135908	4	0.00212961	3.25025e-07	-2.63277e-14	39387.5	0.000000000000000E+000	0.000000000000000E+000	0.00212961	0.00212961	0	2	0.000112427
1	1	0	0	0	0	0	3147.11	0.5	0.244312	0.498712	0.00887287	0.0147971	4	0.00246469	4.03914e-07	-2.63277e-14	41549.3	0.000000000000000E+000	0.000000000000000E+000	0.00246469	0.00246469	0	2	0.000121841
1	1	0	0	0	0	0	3149.66	0.5	0.263083	0.498712	0.0101448	0.0160691	4	0.00281801	4.93754e-07	-2.63277e-14	43667.2	0.000000000000000E+000	0.000000000000000E+000	0.00281801	0.00281801	0	2	0.000131203
1	1	0	0	0	0	0	3152.28	0.5	0.281568	0.499222	0.0114487	0.0173729	4	0.00318019	5.92599e-07	-2.63277e-14	45647.5	0.000000000000000E+000	0.000000000000000E+000	0.00318019	0.00318019	0	2	0.000140565
1	1	0	0	0	0	0	3155.04	0.5	0.300263	0.498394	0.0128242	0.0187484	4	0.00356227	7.03969e-07	-2.63277e-14	47584.8	0.000000000000000E+000	0.000000000000000E+000	0.00356227	0.00356227	0	2	0.000149649
1	1	0	0	0	0	0	3157.93	0.5	0.318938	0.498648	0.0142667	0.020191	4	0.00396298	8.2825e-07	-2.63277e-14	49506.7	0.000000000000000E+000	0.000000000000000E+000	0.00396298	0.00396298	0	2	0.000159038
1	1	0	0	0	0	0	3160.96	0.5	0.337672	0.498202	0.015777	0.0217013	4	0.0043825	9.66236e-07	-2.63277e-14	51405.9	0.000000000000000E+000	0.000000000000000E+000	0.0043825	0.0043825	0	2	0.000168229
1	1	0	0	0	0	0	3164.08	0.5	0.356214	0.498394	0.0173319	0.0232561	4	0.00481441	1.11634e-06	-2.63277e-14	53254.6	0.000000000000000E+000	0.000000000000000E+000	0.00481441	0.00481441	0	2	0.000177535
1	1	0	0	0	0	0	3167.3	0.5	0.374679	0.498394	0.0189397	0.0248639	4	0.00526103	1.27981e-06	-2.63277e-14	55070.3	0.000000000000000E+000	0.000000000000000E+000	0.00526103	0.00526103	0	2	0.000186738
1	1	0	0	0	0	0	3170.67	0.5	0.393164	0.498648	0.0206195	0.0265438	4	0.00572764	1.45922e-06	-2.63277e-14	56896.6	0.000000000000000E+000	0.000000000000000E+000	0.00572764	0.00572764	0	2	0.000196051
1	1	0	0	0	0	0	3174.17	0.5	0.411592	0.498967	0.0223636	0.0282879	4	0.00621212	1.65443e-06	-2.63277e-14	58723.3	0.000000000000000E+000	0.000000000000000E+000	0.00621212	0.00621212	0	2	0.000205371
1	1	0	0	0	0	0	3177.85	0.5	0.430306	0.498648	0.0241987	0.0301229	4	0.00672185	1.8693e-06	-2.63277e-14	60565.6	0.000000000000000E+000	0.000000000000000E+000	0.00672185	0.00672185	0	2	0.000214571
1	1	0	0	0	0	0	3181.69	0.5	0.448924	0.498967	0.0261122	0.0320365	4	0.0072534	2.10329e-06	-2.63277e-14	62445.1	0.000000000000000E+000	0.000000000000000E+000	0.0072534	0.0072534	0	2	0.000223998
1	1	0	0	0	0	0	3185.64	0.5	0.46739	0.497756	0.0280821	0.0340063	4	0.00780058	2.35433e-06	-2.63277e-14	64315.7	0.000000000000000E+000	0.000000000000000E+000	0.00780058	0.00780058	0	2	0.000232646
1	1	0	0	0	0	0	3189.76	0.5	0.485837	0.498776	0.0301344	0.0360586	4	0.00837066	2.62639e-06	-2.63277e-14	66218.4	0.000000000000000E+000	0.000000000000000E+000	0.00837066	0.00837066	0	2	0.000242324
1	1	0	0	0	0	0	3194.11	0.5	0.504417	0.497948	0.0323043	0.0382286	4	0.00897342	2.9252e-06	-2.63277e-14	68202.1	0.000000000000000E+000	0.000000000000000E+000	0.00897342	0.00897342	0	2	0.000251173
1	1	0	0	0	0	0	3198.7	0.5	0.523055	0.49833	0.0345932	0.0405174	4	0.00960922	3.25223e-06	-2.63277e-14	70269.5	0.000000000000000E+000	0.000000000000000E+000	0.00960922	0.00960922	0	2	0.000260654
1	1	0	0	0	0	0	3203.48	0.5	0.541539	0.498457	0.0369746	0.0428989	4	0.0102707	3.60474e-06	-2.63277e-14	72388.8	0.000000000000000E+000	0.000000000000000E+000	0.0102707	0.0102707	0	2	0.000269934
1	1	0	0	0	0	0	3208.56	0.5	0.560101	0.498903	0.0395113	0.0454355	4	0.0109753	3.99326e-06	-2.63277e-14	74642.6	0.000000000000000E+000	0.000000000000000E+000	0.0109753	0.0109753	0	2	0.000279436
1	1	0	0	0	0	0	3213.94	0.5	0.578662	0.49833	0.0421912	0.0481155	4	0.0117198	4.41759e-06	-2.63277e-14	77005.3	0.000000000000000E+000	0.000000000000000E+000	0.0117198	0.0117198	0	2	0.000288365
1	1	0	0	0	0	0	3219.63	0.5	0.597223	0.498648	0.0450294	0.0509536	4	0.0125082	4.88159e-06	-2.63277e-14	79492.3	0.000000000000000E+000	0.000000000000000E+000	0.0125082	0.0125082	0	2	0.000297804
1	1	0	0	0	0	0	3225.67	0.5	0.615842	0.498011	0.0480395	0.0539637	4	0.0133443	5.38924e-06	-2.63277e-14	82107.4	0.000000000000000E+000	0.000000000000000E+000	0.0133443	0.0133443	0	2	0.000306696
1	1	0	0	0	0	0	3232	0.5	0.634403	0.498648	0.0511976	0.0571219	4	0.0142216	5.93811e-06	-2.63277e-14	84814.6	0.000000000000000E+000	0.000000000000000E+000	0.0142216	0.0142216	0	2	0.000316344
1	1	0	0	0	0	0	3238.82	0.5	0.653021	0.498394	0.0545975	0.0605217	4	0.015166	6.54659e-06	-2.63277e-14	87740.6	0.000000000000000E+000	0.000000000000000E+000	0.015166	0.015166	0	2	0.000325462
1	1	0	0	0	0	0	3245.89	0.5	0.671583	0.498457	0.0581227	0.0640469	4	0.0161452	7.19576e-06	-2.63277e-14	90700.3	0.000000000000000E+000	0.000000000000000E+000	0.0161452	0.0161452	0	2	0.000334755
1	1	0	0	0	0	0	3253.31	0.5	0.690125	0.499158	0.0618195	0.0677438	4	0.0171721	7.89552e-06	-2.63277e-14	93756.4	0.000000000000000E+000	0.000000000000000E+000	0.0171721	0.0171721	0	2	0.000344481
1	1	0	0	0	0	0	3261.2	0.5	0.708724	0.498521	0.0657522	0.0716764	4	0.0182645	8.66027e-06	-2.63277e-14	96984.9	0.000000000000000E+000	0.000000000000000E+000	0.0182645	0.0182645	0	2	0.000353314
1	1	0	0	0	0	0	3269.51	0.5	0.727419	0.499286	0.0698971	0.0758214	4	0.0194159	9.48778e-06	-2.63277e-14	100332	0.000000000000000E+000	0.000000000000000E+000	0.0194159	0.0194159	0	2	0.00036319
1	1	0	0	0	0	0	3278.26	0.5	0.745866	0.498967	0.0742583	0.0801825	4	0.0206273	1.03809e-05	-2.63277e-14	103843	0.000000000000000E+000	0.000000000000000E+000	0.0206273	0.0206273	0	2	0.000372162
1	1	0	0	0	0	0	3287.86	0.5	0.764465	0.498266	0.0790456	0.0849699	4	0.0219571	1.13859e-05	-2.63277e-14	107735	0.000000000000000E+000	0.000000000000000E+000	0.0219571	0.0219571	0	2	0.000380907
1	1	0	0	0	0	0	3298.24	0.5	0.783141	0.498712	0.0842231	0.0901473	4	0.0233953	1.24997e-05	-2.63277e-14	111942	0.000000000000000E+000	0.000000000000000E+000	0.0233953	0.0233953	0	2	0.000390562
1	0	0	1	1	0	1	3308.63	-0.5	0.771414	-0.491566	1.1616e-09	0.0953255	5	0.000000000000000E+000	1.36392e-05	-2.63277e-14	116258	0.000000000000000E+000	0.000000000000000E+000	0.000000000000000E+000	0.000000000000000E+000	0	2	-0.000379201
1	0	0	1	0	0	1	3308.92	-0.5	0.75169	-0.502461	-0.000147542	0.095178	5	-4.09844e-05	1.36392e-05	-3.09721e-08	116258	7898	4.09844e-05	0.000000000000000E+000	4.09844e-05	0	2	-0.000377695
1	0	0	1	0	0	1	3310.3	-0.5	0.732957	-0.502397	-0.000841946	0.0944836	5	-0.000233874	1.36392e-05	-1.73866e-07	116258	22503.2	0.000233874	0.000000000000000E+000	0.000233874	0	2	-0.000368235
1	0	0	1	0	0	1	3312.34	-0.5	0.714396	-0.503098	-0.00186311	0.0934624	5	-0.00051753	1.36392e-05	-3.78881e-07	116258	33284.2	0.00051753	0.000000000000000E+000	0.00051753	0	2	-0.000359411
1	0	0	1	0	0	1	3314.84	-0.5	0.69572	-0.502588	-0.00312079	0.0922047	5	-0.000866885	1.36392e-05	-6.24921e-07	116258	41804.7	0.000866885	0.000000000000000E+000	0.000866885	0	2	-0.000349661
1	0	0	1	0	0	1	3317.71	-0.5	0.677139	-0.503799	-0.00456273	0.0907628	5	-0.00126742	1.36392e-05	-8.99577e-07	116258	48939.6	0.00126742	0.000000000000000E+000	0.00126742	0	2	-0.000341142
1	0	0	1	0	0	1	3320.92	-0.5	0.658445	-0.502907	-0.00617762	0.0891479	5	-0.001716	1.36392e-05	-1.19883e-06	116258	55193.3	0.001716	0.000000000000000E+000	0.001716	0	2	-0.000331136
1	0	0	1	0	0	1	3324.37	-0.5	0.63996	-0.502142	-0.00791234	0.0874132	5	-0.00219787	1.36392e-05	-1.51136e-06	116258	60672.1	0.00219787	0.000000000000000E+000	0.00219787	0	2	-0.000321351
1	0	0	1	0	0	1	3328.07	-0.5	0.621551	-0.50278	-0.00977053	0.085555	5	-0.00271404	1.36392e-05	-1.83661e-06	116258	65653.3	0.00271404	0.000000000000000E+000	0.00271404	0	2	-0.000312503
1	0	0	1	0	0	1	3331.99	-0.5	0.602856	-0.503226	-0.0117394	0.0835862	5	-0.00326093	1.36392e-05	-2.17109e-06	116258	70079.4	0.00326093	0.000000000000000E+000	0.00326093	0	2	-0.000303373
1	0	0	1	0	0	1	3336.11	-0.5	0.584333	-0.503162	-0.0138122	0.0815133	5	-0.00383673	1.36392e-05	-2.51255e-06	116258	74244	0.00383673	0.000000000000000E+000	0.00383673	0	2	-0.000294014
1	0	0	1	0	0	1	3340.36	-0.5	0.56581	-0.502079	-0.0159466	0.0793789	5	-0.00442962	1.36392e-05	-2.85314e-06	116258	77955.4	0.00442962	0.000000000000000E+000	0.00442962	0	2	-0.000284081
1	0	0	1	0	0	1	3344.75	-0.5	0.547287	-0.502142	-0.0181516	0.0771739	5	-0.00504211	1.36392e-05	-3.19366e-06	116258	81366.6	0.00504211	0.000000000000000E+000	0.00504211	0	2	-0.000274816
1	0	0	1	0	0	1	3349.22	-0.5	0.528917	-0.502843	-0.020399	0.0749265	5	-0.00566639	1.36392e-05	-3.52925e-06	116258	84483.9	0.00566639	0.000000000000000E+000	0.00566639	0	2	-0.000265962
1	0	0	1	0	0	1	3353.84	-0.5	0.510432	-0.501824	-0.0227203	0.0726052	5	-0.00631119	1.36392e-05	-3.86398e-06	116258	87406.2	0.00631119	0.000000000000000E+000	0.00631119	0	2	-0.000256147
1	0	0	1	0	0	1	3358.5	-0.5	0.492024	-0.50227	-0.025061	0.0702645	5	-0.00696138	1.36392e-05	-4.18955e-06	116258	90034.8	0.00696138	0.000000000000000E+000	0.00696138	0	2	-0.000247129
1	0	0	1	0	0	1	3363.34	-0.5	0.473291	-0.502843	-0.0274921	0.0678334	5	-0.00763669	1.36392e-05	-4.51518e-06	116258	92540.8	0.00763669	0.000000000000000E+000	0.00763669	0	2	-0.000237991
1	0	0	1	0	0	1	3368.09	-0.5	0.454806	-0.502843	-0.0298794	0.0654461	5	-0.00829984	1.36392e-05	-4.82259e-06	116258	94685.3	0.00829984	0.000000000000000E+000	0.00829984	0	2	-0.000228696
1	0	0	1	0	0	1	3372.78	-0.5	0.436206	-0.503226	-0.0322358	0.0630897	5	-0.0089544	1.36392e-05	-5.11388e-06	116258	96466.8	0.0089544	0.000000000000000E+000	0.0089544	0	2	-0.00021951
1	0	0	1	0	0	1	3377.34	-0.5	0.417588	-0.503098	-0.0345291	0.0607964	5	-0.00959142	1.36392e-05	-5.38556e-06	116258	97876.2	0.00959142	0.000000000000000E+000	0.00959142	0	2	-0.000210088
1	0	0	1	0	0	1	3381.86	-0.5	0.398874	-0.503162	-0.0368016	0.0585239	5	-0.0102227	1.36392e-05	-5.64299e-06	116258	99062.8	0.0102227	0.000000000000000E+000	0.0102227	0	2	-0.000200698
1	0	0	1	0	0	1	3386.23	-0.5	0.380313	-0.502397	-0.038998	0.0563276	5	-0.0108328	1.36392e-05	-5.8804e-06	116258	99979.7	0.0108328	0.000000000000000E+000	0.0108328	0	2	-0.000191068
1	0	0	1	0	0	1	3390.57	-0.5	0.361675	-0.502716	-0.0411765	0.054149	5	-0.0114379	1.36392e-05	-6.10462e-06	116258	100751	0.0114379	0.000000000000000E+000	0.0114379	0	2	-0.00018182
1	0	0	1	0	0	1	3394.85	-0.5	0.343209	-0.502461	-0.0433286	0.0519969	5	-0.0120357	1.36392e-05	-6.31501e-06	116258	101434	0.0120357	0.000000000000000E+000	0.0120357	0	2	-0.000172449
1	0	0	1	0	0	1	3399.13	-0.5	0.324782	-0.502397	-0.0454787	0.0498468	5	-0.012633	1.36392e-05	-6.51418e-06	116258	102064	0.012633	0.000000000000000E+000	0.012633	0	2	-0.000163169
1	0	0	1	0	0	1	3403.5	-0.5	0.306144	-0.502397	-0.0476723	0.0476532	5	-0.0132423	1.36392e-05	-6.70607e-06	116258	102692	0.0132423	0.000000000000000E+000	0.0132423	0	2	-0.000153806
1	0	0	1	0	0	1	3407.88	-0.5	0.287564	-0.50227	-0.0498726	0.0454529	5	-0.0138535	1.36392e-05	-6.88716e-06	116258	103297	0.0138535	0.000000000000000E+000	0.0138535	0	2	-0.000144435
1	0	0	1	0	0	1	3412.21	-0.5	0.269117	-0.502206	-0.0520521	0.0432734	5	-0.0144589	1.36392e-05	-7.05534e-06	116258	103844	0.0144589	0.000000000000000E+000	0.0144589	0	2	-0.000135152
1	0	0	1	0	0	1	3416.62	-0.5	0.250499	-0.502461	-0.054265	0.0410605	5	-0.0150736	1.36392e-05	-7.21472e-06	116258	104381	0.0150736	0.000000000000000E+000	0.0150736	0	2	-0.000125866
1	0	0	1	0	0	1	3420.97	-0.5	0.231976	-0.502843	-0.0564541	0.0388714	5	-0.0156817	1.36392e-05	-7.36109e-06	116258	104856	0.0156817	0.000000000000000E+000	0.0156817	0	2	-0.000116647
1	0	0	1	0	0	1	3425.33	-0.5	0.21351	-0.503034	-0.0586422	0.0366833	5	-0.0162895	1.36392e-05	-7.49617e-06	116258	105308	0.0162895	0.000000000000000E+000	0.0162895	0	2	-0.000107403
1	0	0	1	0	0	1	3429.69	-0.5	0.194891	-0.503162	-0.0608341	0.0344914	5	-0.0168984	1.36392e-05	-7.62019e-06	116258	105710	0.0168984	0.000000000000000E+000	0.0168984	0	2	-9.80619e-05
1	0	0	1	0	0	1	3434.01	-0.5	0.176502	-0.503098	-0.0630057	0.0323198	5	-0.0175016	1.36392e-05	-7.73191e-06	116258	106094	0.0175016	0.000000000000000E+000	0.0175016	0	2	-8.87979e-05
1	0	0	1	0	0	1	3438.36	-0.5	0.157941	-0.502334	-0.0651915	0.030134	5	-0.0181087	1.36392e-05	-7.83311e-06	116258	106447	0.0181087	0.000000000000000E+000	0.0181087	0	2	-7.9339e-05
1	0	0	1	0	0	1	3442.72	-0.5	0.139322	-0.502843	-0.067383	0.0279425	5	-0.0187175	1.36392e-05	-7.92327e-06	116258	106779	0.0187175	0.000000000000000E+000	0.0187175	0	2	-7.00573e-05
1	0	0	1	0	0	1	3447.05	-0.5	0.120857	-0.502397	-0.0695563	0.0257692	5	-0.0193212	1.36392e-05	-8.00148e-06	116258	107090	0.0193212	0.000000000000000E+000	0.0193212	0	2	-6.0718e-05
1	0	0	1	0	0	1	3451.41	-0.5	0.102276	-0.502206	-0.0717474	0.0235781	5	-0.0199298	1.36392e-05	-8.0691e-06	116258	107391	0.0199298	0.000000000000000E+000	0.0199298	0	2	-5.13638e-05
1	0	0	1	0	0	1	3455.8	-0.5	0.0836578	-0.50278	-0.0739564	0.0213691	5	-0.0205434	1.36392e-05	-8.12585e-06	116258	107696	0.0205434	0.000000000000000E+000	0.0205434	0	2	-4.20614e-05
1	0	0	1	0	0	1	3460.24	-0.5	0.0650393	-0.502015	-0.0761874	0.0191381	5	-0.0211632	1.36392e-05	-8.17161e-06	116258	108016	0.0211632	0.000000000000000E+000	0.0211632	0	2	-3.26507e-05
1	0	0	1	0	0	1	3464.72	-0.5	0.0463253	-0.502206	-0.0784388	0.0168867	5	-0.0217886	1.36392e-05	-8.20607e-06	116258	108334	0.0217886	0.000000000000000E+000	0.0217886	0	2	-2.32648e-05
1	0	0	1	0	0	1	3469.18	-0.5	0.0279359	-0.502971	-0.0806755	0.01465	5	-0.0224099	1.36392e-05	-8.2288e-06	116258	108663	0.0224099	0.000000000000000E+000	0.0224099	0	2	-1.4051e-05
1	0	0	1	0	0	1	3473.7	-0.5	0.00941291	-0.502971	-0.0829503	0.0123753	5	-0.0230417	1.36392e-05	-8.24022e-06	116258	109008	0.0230417	0.000000000000000E+000	0.0230417	0	2	-4.73442e-06
1	0	0	1	0	0	1	3476.01	-0.5	0.000265977	-0.502525	-0.0841103	0.0112153	5	-0.023364	1.36392e-05	-8.24156e-06	116258	109219	0.023364	0.000000000000000E+000	0.023364	94.0817	2	-1.3366e-07